File: projects/Muestras y catálogo/Older versions/Raman_v1.0/Muestras_12-11-24/Data/Muestra 2_100x_zona2_verde.txt
-174.488	1148.5
-168.221	1145.7
-161.957	1149.5
-155.697	1148.1
-149.442	1148
-143.191	1148.8
-136.943	1148.7
-130.7	1145.4
-124.461	1148.1
-118.226	1147.9
-111.995	1147.7
-105.768	1149.3
-99.5451	1148
-93.3263	1148
-87.1116	1147.1
-80.9009	1148.6
-74.6943	1147.5
-68.4917	1145.7
-62.2932	1149.6
-56.0987	1147.8
-49.9082	1148.4
-43.7218	1149.2
-37.5394	1149.1
-31.361	1150.2
-25.1866	1149.5
-19.0163	1148.8
-12.85	1148.8
-6.6877	1148.7
-0.529406	1154.9
5.62488	1154.9
11.7752	1147.7
17.9214	1146.7
24.0637	1147.3
30.202	1147.8
36.3363	1148.1
42.4666	1147.5
48.593	1146.9
54.7153	1149.1
60.8337	1149.4
66.9481	1149.2
73.0585	1148.5
79.165	1175.6
85.2675	1325.7
91.366	1397.3
97.4606	1430.9
103.551	1419
109.638	1425.2
115.721	1414.3
121.799	1407
127.874	1410.9
133.945	1392.6
140.012	1384.1
146.075	1379.7
152.134	1377.8
158.189	1375.9
164.241	1381.3
170.288	1375
176.332	1367.5
182.371	1364.1
188.407	1355.5
194.438	1364.3
200.466	1365.9
206.49	1372
212.51	1368.2
218.526	1371.4
224.538	1388.2
230.547	1401.3
236.551	1402.7
242.552	1409.3
248.548	1413.9
254.541	1414.2
260.53	1418.1
266.515	1413.3
272.497	1432.2
278.474	1450.4
284.447	1447.4
290.417	1467.9
296.383	1483.4
302.345	1534.5
308.303	1495.1
314.257	1462.3
320.208	1438.5
326.154	1434.1
332.097	1412.6
338.036	1416.3
343.971	1411
349.902	1398.4
355.83	1400.3
361.753	1400.1
367.673	1395.2
373.589	1387
379.501	1384
385.41	1380.8
391.314	1365.5
397.215	1380.8
403.112	1370.8
409.005	1377.5
414.895	1367.5
420.78	1372.6
426.662	1377
432.54	1374
438.414	1371.7
444.285	1361.7
450.152	1336.9
456.015	1333.2
461.874	1332.4
467.729	1343.5
473.581	1344.3
479.429	1359.2
485.273	1378
491.113	1400.5
496.95	1447.1
502.783	1555.5
508.612	1898.7
514.438	4603.9
520.259	11642.4
526.077	4775.5
531.892	2323.4
537.702	1733.1
543.509	1532.5
549.312	1455
555.112	1398.2
560.907	1380.9
566.699	1361.6
572.487	1353.1
578.272	1346
584.053	1339
589.83	1334.7
595.603	1336.7
601.373	1341.5
607.139	1341.7
612.902	1353.9
618.66	1366.1
624.415	1356.5
630.167	1351.4
635.914	1344.6
641.658	1346.9
647.399	1343.3
653.135	1343.1
658.869	1343.4
664.598	1337.8
670.324	1347.6
676.046	1347.4
681.764	1334.2
687.479	1333.2
693.19	1324.8
698.897	1319.9
704.601	1315
710.301	1311.4
715.998	1327.3
721.691	1314.6
727.38	1311.3
733.066	1308
738.748	1316.7
744.426	1314.2
750.101	1315.3
755.772	1333.6
761.44	1325
767.104	1319.5
772.764	1326.9
778.421	1328
784.074	1329.4
789.724	1321.8
795.37	1327.4
801.012	1333.8
806.651	1343.3
812.286	1343.3
817.918	1343.8
823.546	1348.2
829.171	1356.5
834.792	1341.9
840.409	1346.5
846.023	1342.7
851.633	1337.3
857.24	1334.3
862.843	1344.5
868.443	1342.1
874.039	1337.9
879.631	1343.5
885.22	1339.3
890.806	1352.6
896.387	1337.8
901.966	1346
907.541	1347
913.112	1358.1
918.68	1356.9
924.244	1399.1
929.805	1479.3
935.362	1576.8
940.915	1660.5
946.466	1655.6
952.012	1682.4
957.555	1679.6
963.095	1674.8
968.631	1687.2
974.164	1677.2
979.693	1691.4
985.219	1659.5
990.741	1550
996.259	1470.7
1001.77	1443.2
1007.29	1421.4
1012.79	1391.9
1018.3	1376.6
1023.8	1369.2
1029.3	1347.7
1034.79	1342.8
1040.28	1322.1
1045.77	1320.6
1051.26	1323.3
1056.74	1317.6
1062.21	1320.5
1067.69	1316.6
1073.16	1317.2
1078.62	1319.2
1084.09	1326.5
1089.55	1318.6
1095	1320.8
1100.46	1324.2
1105.91	1322.1
1111.35	1319.7
1116.79	1322.1
1122.23	1321.4
1127.67	1326.4
1133.1	1313.7
1138.53	1327.7
1143.96	1320.7
1149.38	1307.6
1154.8	1323.2
1160.21	1317.3
1165.62	1326.2
1171.03	1316.9
1176.44	1331.5
1181.84	1328.4
1187.24	1321.7
1192.63	1329.1
1198.03	1322.5
1203.41	1331.1
1208.8	1327.7
1214.18	1341
1219.56	1333
1224.93	1336.5
1230.3	1338.7
1235.67	1336.7
1241.04	1348.5
1246.4	1341.9
1251.76	1348.2
1257.11	1350.9
1262.46	1350.7
1267.81	1347.6
1273.15	1346
1278.5	1351
1283.83	1355.6
1289.17	1352
1294.5	1357.2
1299.83	1354.1
1305.15	1352.8
1310.47	1358.2
1315.79	1365.6
1321.11	1375.3
1326.42	1372.3
1331.73	1375.6
1337.03	1374.2
1342.33	1378.4
1347.63	1377.8
1352.92	1376.9
1358.22	1371.2
1363.5	1382.4
1368.79	1377.4
1374.07	1376.2
1379.35	1363.6
1384.62	1375.2
1389.9	1370.4
1395.16	1365.4
1400.43	1368
1405.69	1368.9
1410.95	1368.3
1416.21	1365.6
1421.46	1365.7
1426.71	1372.7
1431.95	1366.8
1437.19	1370.3
1442.43	1371
1447.67	1373.3
1452.9	1365.1
1458.13	1355.7
1463.36	1357.8
1468.58	1362.4
1473.8	1368.4
1479.02	1365.1
1484.23	1351.6
1489.44	1366.2
1494.65	1370.2
1499.85	1358.8
1505.05	1361.7
1510.25	1371
1515.44	1370.8
1520.63	1370.3
1525.82	1372.3
1531	1379.3
1536.18	1383.5
1541.36	1396.2
1546.54	1393
1551.71	1413.2
1556.87	1434.5
1562.04	1476
1567.2	1556.9
1572.36	1646.8
1577.52	1824.1
1582.67	1936.8
1587.82	1846
1592.96	1637.9
1598.11	1514
1603.24	1449.5
1608.38	1427.9
1613.51	1409.5
1618.64	1407.9
1623.77	1385.1
1628.89	1369.2
1634.01	1373
1639.13	1360.4
1644.25	1368.7
1649.36	1359.7
1654.47	1353.2
1659.57	1345.8
1664.67	1352.1
1669.77	1346.5
1674.87	1342.6
1679.96	1340.3
1685.05	1336.3
1690.13	1321.6
1695.22	1333.8
1700.3	1332.9
1705.37	1332.8
1710.45	1337.5
1715.52	1334.6
1720.58	1339.6
1725.65	1347.8
1730.71	1346.7
1735.77	1331.9
1740.82	1336.3
1745.87	1335.8
1750.92	1328.6
1755.97	1342
1761.01	1327.6
1766.05	1340.2
1771.09	1343.2
1776.12	1342
1781.15	1335.3
1786.18	1337.3
1791.2	1336
1796.22	1336.7
1801.24	1330.4
1806.25	1341.8
1811.26	1326.6
1816.27	1332.7
1821.28	1333.5
1826.28	1334.3
1831.28	1343.4
1836.28	1333.6
1841.27	1343.2
1846.26	1333.8
1851.25	1338.1
1856.23	1332.6
1861.21	1335.3
1866.19	1327.3
1871.17	1332.1
1876.14	1334.6
1881.11	1329.4
1886.07	1343.7
1891.04	1338.3
1896	1331.3
1900.95	1340.4
1905.91	1339.6
1910.86	1332.3
1915.81	1324.2
1920.75	1335.4
1925.69	1333.9
1930.63	1331.4
1935.57	1338.3
1940.5	1329.8
1945.43	1333.3
1950.36	1336
1955.28	1333.3
1960.2	1333.8
1965.12	1334.9
1970.04	1334.5
1974.95	1337.4
1979.86	1320.8
1984.76	1333.8
1989.67	1340.9
1994.57	1343.5
1999.47	1337.5
2004.36	1336
2009.25	1332.6
2014.14	1333.7
2019.02	1336.6
2023.91	1336
2028.79	1331.8
2033.66	1331.9
2038.54	1335.1
2043.41	1332.3
2048.27	1325.1
2053.14	1333
2058	1327.2
2062.86	1331.9
2067.72	1333.1
2072.57	1325.6
2077.42	1332.5
2082.27	1326.7
2087.11	1336.1
2091.95	1331.9
2096.79	1330.4
2101.63	1327.6
2106.46	1331.4
2111.29	1321.9
2116.11	1332.1
2120.94	1325.7
2125.76	1329.8
2130.58	1332.6
2135.39	1328
2140.21	1337.5
2145.01	1322.1
2149.82	1325.6
2154.62	1328.3
2159.43	1326.2
2164.22	1324.6
2169.02	1322.3
2173.81	1331.3
2178.6	1332.7
2183.39	1316
2188.17	1333.8
2192.95	1333.6
2197.73	1326
2202.5	1332.3
2207.28	1324.7
2212.04	1333.1
2216.81	1314.5
2221.57	1330.1
2226.33	1331.6
2231.09	1324
2235.85	1325.1
2240.6	1329.1
2245.35	1329
2250.1	1324.2
2254.84	1317
2259.58	1328.2
2264.32	1315.5
2269.05	1317.5
2273.79	1321.6
2278.52	1326.4
2283.24	1319.7
2287.97	1319.8
2292.69	1316.4
2297.4	1328.1
2302.12	1320.5
2306.83	1317.1
2311.54	1311.4
2316.25	1331.5
2320.95	1318.8
2325.66	1326.3
2330.35	1326
2335.05	1321.8
2339.74	1322.8
2344.43	1315.8
2349.12	1322.7
2353.81	1310.9
2358.49	1329.7
2363.17	1323.3
2367.84	1315.9
2372.52	1314.8
2377.19	1322.6
2381.86	1324.5
2386.52	1320
2391.18	1321.6
2395.84	1318.7
2400.5	1326.6
2405.15	1317.5
2409.81	1330.6
2414.45	1323.5
2419.1	1328.6
2423.74	1331.7
2428.38	1336.9
2433.02	1341
2437.66	1341.5
2442.29	1358.5
2446.92	1361.8
2451.55	1367.8
2456.17	1360.3
2460.79	1343.7
2465.41	1344.3
2470.03	1342.7
2474.64	1337.2
2479.25	1336.8
2483.86	1341.1
2488.46	1331.8
2493.07	1341.6
2497.67	1324.7
2502.26	1329.4
2506.86	1327.6
2511.45	1322.2
2516.04	1319.8
2520.62	1325.6
2525.21	1328.3
2529.79	1325.5
2534.37	1314.9
2538.94	1319.4
2543.51	1325.4
2548.08	1325.9
2552.65	1326.4
2557.22	1325
2561.78	1319.6
2566.34	1328.7
2570.89	1321.3
2575.45	1323.7
2580	1334.3
2584.55	1327.5
2589.1	1329.9
2593.64	1334.4
2598.18	1334
2602.72	1342.6
2607.25	1342.1
2611.79	1354.4
2616.32	1358.8
2620.84	1380.3
2625.37	1394
2629.89	1427.5
2634.41	1465.2
2638.93	1513.5
2643.44	1587.6
2647.95	1678.9
2652.46	1817.9
2656.97	1944.6
2661.47	2058.9
2665.97	2129.5
2670.47	2181.7
2674.97	2098.4
2679.46	1999.6
2683.95	1887.4
2688.44	1794
2692.93	1671.7
2697.41	1583.4
2701.89	1522.3
2706.37	1468.1
2710.84	1428.3
2715.32	1400.6
2719.79	1392.7
2724.25	1372.3
2728.72	1343.8
2733.18	1338
2737.64	1334.8
2742.1	1316.2
2746.55	1329.5
2751	1314.7
2755.45	1309.4
2759.9	1310.5
2764.34	1299
2768.79	1313.9
2773.22	1316.9
2777.66	1311.4
2782.1	1305.3
2786.53	1299
2790.96	1310.5
2795.38	1296.4
2799.81	1300.5
2804.23	1293.8
2808.65	1301.5
2813.06	1296.7
2817.48	1287.9
2821.89	1292
2826.3	1288.7
2830.7	1296.3
2835.1	1296
2839.51	1295.3
2843.9	1291
2848.3	1294.4
2852.69	1296.7
2857.08	1290.1
2861.47	1292.2
2865.86	1289.8
2870.24	1289.3
2874.62	1294.9
2879	1288.7
2883.38	1296.3
2887.75	1284.6
2892.12	1287.3
2896.49	1291
2900.85	1283.9
2905.22	1279.6
2909.58	1286.8
2913.94	1287.2
2918.29	1277.6
2922.65	1285.8
2927	1278
2931.35	1274
2935.69	1277.7
2940.03	1274
2944.38	1280.2
2948.71	1276.3
2953.05	1264
2957.38	1275.7
2961.71	1270.8
2966.04	1280.5
2970.37	1271.5
2974.69	1271.8
2979.01	1272.4
2983.33	1268.5
2987.65	1262.5
2991.96	1269.7
2996.27	1269.4
3000.58	1265.4
3004.89	1262.9
3009.19	1263.6
3013.5	1261.8
3017.79	1262.1
3022.09	1264.7
3026.39	1262
3030.68	1259.9
3034.97	1258.1
3039.25	1262.7
3043.54	1265.5
3047.82	1263.4
3052.1	1257.5
3056.38	1254.1
3060.65	1257.8
3064.93	1257.2
3069.2	1255.7
3073.46	1254.7
3077.73	1257
3081.99	1255
3086.25	1249
3090.51	1249.1
3094.77	1251
3099.02	1261.4
3103.27	1255.4
3107.52	1250.3
3111.77	1255.2
3116.01	1245.8
3120.25	1251.1
3124.49	1251.3
3128.73	1251
3132.96	1257.7
3137.19	1251.5
3141.42	1250.8
3145.65	1240.1
3149.87	1252.3
3154.1	1245
3158.32	1248.7
3162.53	1249.2
3166.75	1240.7
3170.96	1250.7
3175.17	1236.7
3179.38	1245.2
3183.59	1246.3
3187.79	1247.8
3191.99	1254.1
3196.19	1241.9
3200.39	1237.7
3204.58	1244.4
3208.77	1245.1
3212.96	1242.8
3217.15	1245.8
3221.33	1242.4
3225.52	1261.6
3229.7	1263
3233.87	1263.6
3238.05	1269.4
3242.22	1265.6
3246.39	1256.7
3250.56	1253.3
3254.73	1243.4
3258.89	1237
3263.05	1239.7
3267.21	1234.2
3271.37	1235.3
3275.52	1232
3279.68	1232.9
3283.83	1234
3287.97	1231.3
3292.12	1227.1
3296.26	1239.7
3300.4	1232.1
3304.54	1230.7
3308.68	1228.5
3312.81	1227.9
3316.94	1224.5
3321.07	1225.5
3325.2	1223.1
3329.33	1220.4
3333.45	1230.4
3337.57	1226.8
3341.69	1220.4
3345.8	1221.4
3349.92	1217
3354.03	1222.9
3358.14	1222.1
3362.24	1215.9
3366.35	1220.8
3370.45	1226
3374.55	1220.3
3378.65	1222.3
3382.74	1212.7
3386.83	1222.2
3390.93	1218.7
3395.01	1215.6
3399.1	1223.9
3403.18	1216.6
3407.27	1218.1
3411.35	1213.7
3415.42	1212
3419.5	1211.6
3423.57	1216.8
3427.64	1211.7
3431.71	1213.5
3435.78	1210.5
3439.84	1212.9
3443.9	1215.4
3447.96	1205.2
3452.02	1210.2
3456.07	1211.3
3460.13	1207.1
3464.18	1209.6
3468.23	1209.6
3472.27	1211.8
3476.32	1208.1
3480.36	1206.1
3484.4	1206.7
3488.44	1206.7
3492.47	1205.3
3496.5	1207.5
3500.54	1206.2
3504.56	1208.7
3508.59	1200.1
3512.62	1201.3
3516.64	1204.2
3520.66	1205.3
3524.67	1203.3
3528.69	1204.5
3532.7	1199
3536.72	1200
3540.72	1202.5
3544.73	1203.3
3548.74	1195.3
3552.74	1200.5
3556.74	1204.1
3560.74	1196.8
3564.73	1200.8
3568.73	1197
3572.72	1200
3576.71	1197.4
3580.7	1198.3
3584.68	1200.7
3588.66	1199.9
3592.64	1200.8
3596.62	1193.7
3600.6	1191.9
3604.57	1197.6
3608.55	1193.3
3612.52	1196.1
3616.48	1196.5
3620.45	1192.3
3624.41	1191.9
3628.38	1190.5
3632.34	1194.4
3636.29	1191.1
3640.25	1188.1
3644.2	1193.1
3648.15	1188
3652.1	1186.2
3656.05	1193.7
3659.99	1190
3663.94	1190.8
3667.88	1189.4
3671.81	1187.6
3675.75	1189.4
3679.68	1187
3683.62	1186.1
3687.55	1185.3
3691.47	1183.5
3695.4	1189.5
3699.32	1183
3703.24	1188
3707.16	1183.3
3711.08	1184.7
3715	1185.5
3718.91	1184
3722.82	1184.5
3726.73	1184.7
3730.64	1179.6
3734.54	1183.1
3738.44	1182.7
3742.34	1182.4
3746.24	1179.1
3750.14	1178.8
3754.03	1181.9
3757.92	1183.6
3761.81	1185.7
3765.7	1181.7
3769.59	1180.6
3773.47	1184.6
3775.41	1183.5