File: projects/Muestras y catálogo/Older versions/Raman_v1.0/Muestras_12-11-24/Data/Muestra 2_100x_zona2_rojo.txt
-174.488	1149.2
-168.221	1147.9
-161.957	1147.2
-155.697	1149.1
-149.442	1147.7
-143.191	1146.7
-136.943	1149.4
-130.7	1148.9
-124.461	1148.8
-118.226	1149.1
-111.995	1148.6
-105.768	1148.9
-99.5451	1147.1
-93.3263	1147.6
-87.1116	1149.1
-80.9009	1147.7
-74.6943	1149.4
-68.4917	1148.9
-62.2932	1149
-56.0987	1146.1
-49.9082	1150.8
-43.7218	1146.8
-37.5394	1150.3
-31.361	1150.5
-25.1866	1148
-19.0163	1146.9
-12.85	1148
-6.6877	1146.6
-0.529406	1151.7
5.62488	1154.8
11.7752	1147.8
17.9214	1148.2
24.0637	1147.4
30.202	1147.2
36.3363	1147.9
42.4666	1149.1
48.593	1149.4
54.7153	1147
60.8337	1147.6
66.9481	1148.4
73.0585	1150.1
79.165	1182
85.2675	1315
91.366	1399.3
97.4606	1421.4
103.551	1417.4
109.638	1409
115.721	1406.9
121.799	1392.5
127.874	1376.5
133.945	1371.3
140.012	1366.7
146.075	1369.2
152.134	1358.5
158.189	1356.9
164.241	1353.4
170.288	1342.5
176.332	1350.9
182.371	1346.9
188.407	1333.8
194.438	1341
200.466	1352.1
206.49	1339.7
212.51	1341.4
218.526	1343.5
224.538	1361.2
230.547	1376.4
236.551	1375.9
242.552	1390
248.548	1384.4
254.541	1391.1
260.53	1392.3
266.515	1403.3
272.497	1409.7
278.474	1422.3
284.447	1415
290.417	1437.6
296.383	1461.6
302.345	1494.4
308.303	1477.1
314.257	1441.8
320.208	1427.4
326.154	1405.6
332.097	1389
338.036	1378.1
343.971	1385.8
349.902	1371.1
355.83	1362.5
361.753	1364.6
367.673	1359.5
373.589	1354.2
379.501	1350.3
385.41	1341.3
391.314	1336.3
397.215	1339.9
403.112	1331.9
409.005	1330.9
414.895	1329.6
420.78	1329.3
426.662	1335.1
432.54	1337.5
438.414	1331
444.285	1320.1
450.152	1302.2
456.015	1294
461.874	1285
467.729	1300.4
473.581	1303.4
479.429	1312.3
485.273	1332.8
491.113	1365.4
496.95	1408.8
502.783	1521
508.612	1938.3
514.438	4925.2
520.259	12635.9
526.077	5071
531.892	2376.4
537.702	1710.7
543.509	1514.1
549.312	1423.2
555.112	1368.6
560.907	1340.4
566.699	1326.8
572.487	1307.7
578.272	1294
584.053	1294
589.83	1288.8
595.603	1289.6
601.373	1291.1
607.139	1297.6
612.902	1306.3
618.66	1316.5
624.415	1310
630.167	1298.2
635.914	1296.2
641.658	1287.4
647.399	1295.1
653.135	1301.1
658.869	1300
664.598	1299.2
670.324	1302.4
676.046	1298.6
681.764	1286.3
687.479	1291.2
693.19	1273.4
698.897	1270.2
704.601	1264
710.301	1265.5
715.998	1262.9
721.691	1266.8
727.38	1261.1
733.066	1260.8
738.748	1263.7
744.426	1272.6
750.101	1260.8
755.772	1260.1
761.44	1266.5
767.104	1267.7
772.764	1270
778.421	1273.5
784.074	1270.6
789.724	1274.2
795.37	1282.5
801.012	1281.4
806.651	1289.5
812.286	1290.1
817.918	1293.7
823.546	1296.7
829.171	1291.4
834.792	1284.8
840.409	1289.9
846.023	1284.3
851.633	1284.1
857.24	1284.6
862.843	1288.8
868.443	1283.4
874.039	1284.8
879.631	1299.9
885.22	1286.7
890.806	1294.1
896.387	1291
901.966	1287.9
907.541	1298.8
913.112	1305
918.68	1298.1
924.244	1346.8
929.805	1420.5
935.362	1564
940.915	1646.3
946.466	1649.6
952.012	1637.3
957.555	1666.1
963.095	1668.2
968.631	1667.4
974.164	1665.8
979.693	1663.7
985.219	1633.2
990.741	1528.9
996.259	1424
1001.77	1383.7
1007.29	1357.8
1012.79	1339.6
1018.3	1316.2
1023.8	1312.4
1029.3	1289.7
1034.79	1270.6
1040.28	1262.6
1045.77	1257.3
1051.26	1248.1
1056.74	1254.1
1062.21	1246.2
1067.69	1253.2
1073.16	1251.1
1078.62	1245.1
1084.09	1260
1089.55	1252.4
1095	1246.7
1100.46	1258.3
1105.91	1248
1111.35	1250.6
1116.79	1250.6
1122.23	1244
1127.67	1251.3
1133.1	1242
1138.53	1247.8
1143.96	1250.2
1149.38	1247.1
1154.8	1246.1
1160.21	1247.4
1165.62	1251.5
1171.03	1248.3
1176.44	1245.3
1181.84	1246.4
1187.24	1249.9
1192.63	1248.3
1198.03	1255
1203.41	1257.4
1208.8	1248.3
1214.18	1244.7
1219.56	1256.1
1224.93	1250.7
1230.3	1257.5
1235.67	1255.1
1241.04	1258.4
1246.4	1258
1251.76	1258.2
1257.11	1257.7
1262.46	1261.2
1267.81	1258.7
1273.15	1253.9
1278.5	1256.1
1283.83	1260.7
1289.17	1260.9
1294.5	1262.6
1299.83	1268.6
1305.15	1263.1
1310.47	1272.5
1315.79	1272.4
1321.11	1273.4
1326.42	1282.5
1331.73	1289.3
1337.03	1300.7
1342.33	1296.2
1347.63	1296.1
1352.92	1284.1
1358.22	1285.5
1363.5	1277.5
1368.79	1276.8
1374.07	1267.2
1379.35	1269
1384.62	1268.3
1389.9	1274.5
1395.16	1274.7
1400.43	1268.7
1405.69	1269.1
1410.95	1269.1
1416.21	1264.6
1421.46	1265.2
1426.71	1272.9
1431.95	1267.9
1437.19	1271.5
1442.43	1268.1
1447.67	1268.4
1452.9	1268.2
1458.13	1262.4
1463.36	1265.5
1468.58	1263.2
1473.8	1261
1479.02	1272.3
1484.23	1266.4
1489.44	1264.8
1494.65	1271.2
1499.85	1268.3
1505.05	1273.2
1510.25	1259.6
1515.44	1271.5
1520.63	1273.9
1525.82	1279.5
1531	1275.9
1536.18	1282.8
1541.36	1290.9
1546.54	1297.2
1551.71	1314.9
1556.87	1343
1562.04	1377.7
1567.2	1456.1
1572.36	1564.4
1577.52	1680.6
1582.67	1677.5
1587.82	1569
1592.96	1444.9
1598.11	1379.5
1603.24	1331.7
1608.38	1311.6
1613.51	1305
1618.64	1292.2
1623.77	1290.9
1628.89	1284.3
1634.01	1274.8
1639.13	1277
1644.25	1267.5
1649.36	1257.5
1654.47	1260.4
1659.57	1253
1664.67	1244.9
1669.77	1254.5
1674.87	1255.7
1679.96	1251.5
1685.05	1257.4
1690.13	1251.9
1695.22	1250.1
1700.3	1252.9
1705.37	1251.6
1710.45	1245.6
1715.52	1244.1
1720.58	1252.4
1725.65	1250.3
1730.71	1245.1
1735.77	1247.3
1740.82	1251.2
1745.87	1253
1750.92	1249.7
1755.97	1251.6
1761.01	1249.8
1766.05	1249
1771.09	1251.2
1776.12	1250.3
1781.15	1251.2
1786.18	1248.4
1791.2	1248.3
1796.22	1248.6
1801.24	1249.2
1806.25	1247.8
1811.26	1241.3
1816.27	1256.5
1821.28	1243.6
1826.28	1247.1
1831.28	1249.6
1836.28	1243.5
1841.27	1248.8
1846.26	1246.8
1851.25	1247.9
1856.23	1250.9
1861.21	1249.4
1866.19	1252.4
1871.17	1248.5
1876.14	1251.8
1881.11	1250.3
1886.07	1245.1
1891.04	1244.8
1896	1248.5
1900.95	1245.5
1905.91	1250.9
1910.86	1249.2
1915.81	1238.3
1920.75	1245
1925.69	1244.3
1930.63	1243.8
1935.57	1245.7
1940.5	1248.1
1945.43	1247.3
1950.36	1242.4
1955.28	1243.7
1960.2	1246.4
1965.12	1248.4
1970.04	1248.4
1974.95	1244.7
1979.86	1247.6
1984.76	1250.9
1989.67	1247.8
1994.57	1255.7
1999.47	1248.7
2004.36	1245.8
2009.25	1251.7
2014.14	1251.6
2019.02	1246.1
2023.91	1245.3
2028.79	1248
2033.66	1247.3
2038.54	1250.1
2043.41	1247.7
2048.27	1244.7
2053.14	1251.3
2058	1246.9
2062.86	1239.7
2067.72	1249.4
2072.57	1241.9
2077.42	1242
2082.27	1242.7
2087.11	1239.4
2091.95	1234.7
2096.79	1241.9
2101.63	1235
2106.46	1237.3
2111.29	1237.6
2116.11	1244.5
2120.94	1241.4
2125.76	1243.2
2130.58	1245.7
2135.39	1239.8
2140.21	1242.5
2145.01	1236.3
2149.82	1245.7
2154.62	1246.4
2159.43	1244.7
2164.22	1241.5
2169.02	1241.5
2173.81	1243.4
2178.6	1242.5
2183.39	1242.1
2188.17	1249.2
2192.95	1240.2
2197.73	1246.4
2202.5	1248
2207.28	1240
2212.04	1237.4
2216.81	1240.1
2221.57	1242.5
2226.33	1244
2231.09	1245.9
2235.85	1243.4
2240.6	1242.5
2245.35	1239.3
2250.1	1235.8
2254.84	1236.1
2259.58	1233.6
2264.32	1240.2
2269.05	1240.8
2273.79	1237.5
2278.52	1244.8
2283.24	1239.4
2287.97	1239.7
2292.69	1242.7
2297.4	1237.9
2302.12	1237.2
2306.83	1243.4
2311.54	1239.6
2316.25	1241.9
2320.95	1245.6
2325.66	1231.9
2330.35	1240.4
2335.05	1238.4
2339.74	1234.9
2344.43	1240.3
2349.12	1239.4
2353.81	1239.6
2358.49	1237.8
2363.17	1234.1
2367.84	1244
2372.52	1242.1
2377.19	1243.4
2381.86	1233.6
2386.52	1240.4
2391.18	1244
2395.84	1243.2
2400.5	1246.6
2405.15	1245.6
2409.81	1236
2414.45	1249.6
2419.1	1247.3
2423.74	1250.2
2428.38	1256.5
2433.02	1263.7
2437.66	1270
2442.29	1265.7
2446.92	1278.2
2451.55	1275.3
2456.17	1280.1
2460.79	1265.9
2465.41	1267.4
2470.03	1257.9
2474.64	1265.1
2479.25	1256.9
2483.86	1258.8
2488.46	1253
2493.07	1249.5
2497.67	1242.2
2502.26	1247.4
2506.86	1245.3
2511.45	1253.9
2516.04	1249.8
2520.62	1248.6
2525.21	1246.5
2529.79	1248.6
2534.37	1248.8
2538.94	1249.1
2543.51	1242
2548.08	1241.5
2552.65	1249.6
2557.22	1240.6
2561.78	1247.8
2566.34	1241.5
2570.89	1247.1
2575.45	1247.9
2580	1245.4
2584.55	1258.6
2589.1	1254.8
2593.64	1255.6
2598.18	1264
2602.72	1278.5
2607.25	1273.6
2611.79	1292.8
2616.32	1292.8
2620.84	1315
2625.37	1351.4
2629.89	1376.9
2634.41	1439
2638.93	1488.1
2643.44	1598.5
2647.95	1687.2
2652.46	1782.2
2656.97	1894.4
2661.47	1978.7
2665.97	2013.4
2670.47	2001.8
2674.97	1928.2
2679.46	1839
2683.95	1730.5
2688.44	1623.4
2692.93	1540.7
2697.41	1479
2701.89	1420.2
2706.37	1366.6
2710.84	1351.1
2715.32	1323.1
2719.79	1299.7
2724.25	1285.1
2728.72	1283.7
2733.18	1270.7
2737.64	1257.4
2742.1	1258.6
2746.55	1253.6
2751	1253.2
2755.45	1247.8
2759.9	1243.1
2764.34	1241.5
2768.79	1238.7
2773.22	1243.4
2777.66	1233.1
2782.1	1233
2786.53	1229.5
2790.96	1229.6
2795.38	1229.9
2799.81	1226.4
2804.23	1226
2808.65	1231.9
2813.06	1234.6
2817.48	1228.8
2821.89	1225.7
2826.3	1226.5
2830.7	1232.5
2835.1	1222.2
2839.51	1223.1
2843.9	1227.1
2848.3	1222.3
2852.69	1224.1
2857.08	1226.8
2861.47	1226.2
2865.86	1228.4
2870.24	1218.7
2874.62	1223.9
2879	1224.8
2883.38	1220.6
2887.75	1222.1
2892.12	1225
2896.49	1220.7
2900.85	1218
2905.22	1218.7
2909.58	1218.9
2913.94	1218.7
2918.29	1215.3
2922.65	1219.2
2927	1227.7
2931.35	1220.4
2935.69	1219.8
2940.03	1215.8
2944.38	1210.2
2948.71	1215.1
2953.05	1215.7
2957.38	1218.3
2961.71	1211.5
2966.04	1213.5
2970.37	1216.3
2974.69	1215.8
2979.01	1211.5
2983.33	1211.4
2987.65	1211.3
2991.96	1212.2
2996.27	1211.5
3000.58	1209.5
3004.89	1212.3
3009.19	1216.7
3013.5	1209.3
3017.79	1212.8
3022.09	1207.9
3026.39	1210.2
3030.68	1205.6
3034.97	1205.6
3039.25	1206.5
3043.54	1204
3047.82	1205.2
3052.1	1204.5
3056.38	1207.2
3060.65	1200.8
3064.93	1211
3069.2	1204.8
3073.46	1202
3077.73	1203.7
3081.99	1208.9
3086.25	1204.9
3090.51	1204.1
3094.77	1198.9
3099.02	1202.9
3103.27	1199.9
3107.52	1200.3
3111.77	1205.2
3116.01	1209.9
3120.25	1201.2
3124.49	1204.5
3128.73	1202.5
3132.96	1199.9
3137.19	1199
3141.42	1200.7
3145.65	1201.5
3149.87	1197
3154.1	1203.7
3158.32	1197.6
3162.53	1202.5
3166.75	1202.1
3170.96	1198.9
3175.17	1201.7
3179.38	1200.2
3183.59	1198.7
3187.79	1198.4
3191.99	1203.2
3196.19	1194.6
3200.39	1201.1
3204.58	1200.6
3208.77	1196.3
3212.96	1197.3
3217.15	1203.1
3221.33	1204.5
3225.52	1215.5
3229.7	1219.3
3233.87	1222.9
3238.05	1225
3242.22	1220.2
3246.39	1213.4
3250.56	1208.5
3254.73	1202
3258.89	1200.2
3263.05	1198.6
3267.21	1192.4
3271.37	1191.7
3275.52	1193.5
3279.68	1188.9
3283.83	1196
3287.97	1190.9
3292.12	1190.9
3296.26	1191.5
3300.4	1187
3304.54	1187.7
3308.68	1186.2
3312.81	1187.9
3316.94	1190.1
3321.07	1192.7
3325.2	1192.5
3329.33	1188.7
3333.45	1190.6
3337.57	1186.9
3341.69	1189.4
3345.8	1190.8
3349.92	1187.9
3354.03	1185
3358.14	1187.9
3362.24	1188.3
3366.35	1184.8
3370.45	1184.8
3374.55	1187.1
3378.65	1185.3
3382.74	1184
3386.83	1187.3
3390.93	1184.8
3395.01	1185.8
3399.1	1182.1
3403.18	1187
3407.27	1188.4
3411.35	1184.3
3415.42	1187.6
3419.5	1181.5
3423.57	1185.3
3427.64	1179.6
3431.71	1182.9
3435.78	1176.3
3439.84	1178.8
3443.9	1183.4
3447.96	1180.6
3452.02	1181.2
3456.07	1178.1
3460.13	1180.5
3464.18	1179.5
3468.23	1181.4
3472.27	1174
3476.32	1183.1
3480.36	1176.8
3484.4	1175.1
3488.44	1174.9
3492.47	1177.8
3496.5	1181
3500.54	1174.6
3504.56	1181.1
3508.59	1178.3
3512.62	1175.6
3516.64	1177.3
3520.66	1176.1
3524.67	1177.2
3528.69	1178.8
3532.7	1174.4
3536.72	1177.3
3540.72	1178
3544.73	1178
3548.74	1178.4
3552.74	1173.6
3556.74	1172.8
3560.74	1174.8
3564.73	1175.9
3568.73	1172
3572.72	1170.8
3576.71	1175.8
3580.7	1175.6
3584.68	1174.5
3588.66	1173.9
3592.64	1172.2
3596.62	1171.6
3600.6	1173.1
3604.57	1172.3
3608.55	1169.7
3612.52	1173.3
3616.48	1169.9
3620.45	1171.5
3624.41	1168.8
3628.38	1168.9
3632.34	1170.4
3636.29	1170.4
3640.25	1173.8
3644.2	1170.3
3648.15	1169.5
3652.1	1166.3
3656.05	1169
3659.99	1173.3
3663.94	1172.3
3667.88	1168.4
3671.81	1167.7
3675.75	1170.8
3679.68	1172.1
3683.62	1170.3
3687.55	1172.9
3691.47	1171.2
3695.4	1169.1
3699.32	1168.9
3703.24	1169.6
3707.16	1167.1
3711.08	1166.5
3715	1165.1
3718.91	1162.4
3722.82	1162.8
3726.73	1169
3730.64	1169
3734.54	1167.2
3738.44	1166.6
3742.34	1164.3
3746.24	1167.9
3750.14	1164
3754.03	1166.2
3757.92	1164.2
3761.81	1162.7
3765.7	1164.2
3769.59	1167.1
3773.47	1163.9
3775.41	1165.7