File: projects/Muestras y catálogo/Older versions/Raman_v1.0/Muestras_12-11-24/Data/Muestra 2_100x_zona2_cian.txt
-174.488	1147.1
-168.221	1146
-161.957	1149
-155.697	1146.4
-149.442	1149.5
-143.191	1148.5
-136.943	1146.8
-130.7	1148.6
-124.461	1147.6
-118.226	1146.7
-111.995	1148.5
-105.768	1148.3
-99.5451	1149
-93.3263	1149.9
-87.1116	1148.6
-80.9009	1149.2
-74.6943	1147.2
-68.4917	1148.9
-62.2932	1146.7
-56.0987	1146.4
-49.9082	1149.4
-43.7218	1149.6
-37.5394	1149.4
-31.361	1147.9
-25.1866	1146.8
-19.0163	1148.2
-12.85	1148
-6.6877	1149
-0.529406	1154
5.62488	1151.5
11.7752	1151.6
17.9214	1147.6
24.0637	1148.2
30.202	1147.6
36.3363	1147.7
42.4666	1148.8
48.593	1146.8
54.7153	1149.3
60.8337	1147.8
66.9481	1147.3
73.0585	1153.1
79.165	1191.2
85.2675	1406.1
91.366	1545.9
97.4606	1574.7
103.551	1583.9
109.638	1580.4
115.721	1579.1
121.799	1540.5
127.874	1535.9
133.945	1530.8
140.012	1517.6
146.075	1518
152.134	1518.5
158.189	1519.1
164.241	1505
170.288	1512.8
176.332	1500.2
182.371	1500.4
188.407	1498.9
194.438	1498.2
200.466	1496.5
206.49	1491.4
212.51	1514.6
218.526	1521.9
224.538	1531.6
230.547	1532.6
236.551	1553.7
242.552	1555
248.548	1559.2
254.541	1560.9
260.53	1568.4
266.515	1565.9
272.497	1560.2
278.474	1587.1
284.447	1590.9
290.417	1622
296.383	1628.6
302.345	1658
308.303	1636.4
314.257	1617.1
320.208	1598.5
326.154	1572
332.097	1565.6
338.036	1546.6
343.971	1545.8
349.902	1544.2
355.83	1550.5
361.753	1534.6
367.673	1537.2
373.589	1517.4
379.501	1538.7
385.41	1522.1
391.314	1516.9
397.215	1511.6
403.112	1517.2
409.005	1517.9
414.895	1508.7
420.78	1521.9
426.662	1523.7
432.54	1532.7
438.414	1515.5
444.285	1503.5
450.152	1476.7
456.015	1486.2
461.874	1483.9
467.729	1485.5
473.581	1482.5
479.429	1496.8
485.273	1505
491.113	1544
496.95	1581.6
502.783	1701.8
508.612	2077.3
514.438	4869.7
520.259	12161.5
526.077	5015
531.892	2485.3
537.702	1892.4
543.509	1695.3
549.312	1615.3
555.112	1557.1
560.907	1529
566.699	1519.5
572.487	1496.4
578.272	1501.1
584.053	1491
589.83	1491.8
595.603	1480.5
601.373	1505.5
607.139	1485.6
612.902	1510.3
618.66	1513
624.415	1513.4
630.167	1498.7
635.914	1500.5
641.658	1499.9
647.399	1497.9
653.135	1502.5
658.869	1509.3
664.598	1508.5
670.324	1501.6
676.046	1503.7
681.764	1500.7
687.479	1481.3
693.19	1481.3
698.897	1475.3
704.601	1475.2
710.301	1472.8
715.998	1470.7
721.691	1472.7
727.38	1475
733.066	1464.9
738.748	1463.7
744.426	1473.6
750.101	1474.2
755.772	1481.6
761.44	1482
767.104	1487.1
772.764	1487.6
778.421	1489.6
784.074	1487.1
789.724	1481.3
795.37	1491.9
801.012	1488.9
806.651	1491.8
812.286	1499.7
817.918	1498.6
823.546	1507.4
829.171	1500.7
834.792	1503.7
840.409	1516.4
846.023	1500.4
851.633	1513.9
857.24	1519.8
862.843	1520.5
868.443	1516.9
874.039	1507.9
879.631	1519.8
885.22	1525.2
890.806	1515.7
896.387	1513.3
901.966	1507.7
907.541	1535.1
913.112	1534.9
918.68	1539.5
924.244	1556.6
929.805	1632
935.362	1747.3
940.915	1853.7
946.466	1853.5
952.012	1862.9
957.555	1882.6
963.095	1885.3
968.631	1874
974.164	1896.2
979.693	1891.9
985.219	1854.4
990.741	1754.2
996.259	1667.2
1001.77	1623.9
1007.29	1603.5
1012.79	1585.6
1018.3	1563.3
1023.8	1549.7
1029.3	1548.9
1034.79	1540.1
1040.28	1527.7
1045.77	1503.7
1051.26	1534
1056.74	1515.2
1062.21	1519.8
1067.69	1518.5
1073.16	1504.2
1078.62	1525.9
1084.09	1536
1089.55	1526.2
1095	1541.5
1100.46	1534.9
1105.91	1536.3
1111.35	1542.8
1116.79	1535.9
1122.23	1539.7
1127.67	1558.1
1133.1	1559.6
1138.53	1551.3
1143.96	1560.6
1149.38	1558.9
1154.8	1559.2
1160.21	1579.2
1165.62	1578.1
1171.03	1573.4
1176.44	1585.1
1181.84	1592.9
1187.24	1598.4
1192.63	1593
1198.03	1597
1203.41	1598.9
1208.8	1624.1
1214.18	1626.3
1219.56	1632.9
1224.93	1627.3
1230.3	1630.9
1235.67	1650
1241.04	1642.4
1246.4	1659.9
1251.76	1659.6
1257.11	1674.1
1262.46	1673.9
1267.81	1666.1
1273.15	1692.3
1278.5	1689.9
1283.83	1700.9
1289.17	1722.3
1294.5	1715.3
1299.83	1727
1305.15	1750.9
1310.47	1758
1315.79	1794.4
1321.11	1823.7
1326.42	1836.3
1331.73	1879.7
1337.03	1950.8
1342.33	1946
1347.63	1952.7
1352.92	1917.5
1358.22	1874.8
1363.5	1824.1
1368.79	1797
1374.07	1791.5
1379.35	1803.7
1384.62	1773.6
1389.9	1748.9
1395.16	1739.6
1400.43	1733.1
1405.69	1724.8
1410.95	1724.5
1416.21	1725.4
1421.46	1726.3
1426.71	1730.7
1431.95	1732.9
1437.19	1719
1442.43	1718.4
1447.67	1728.9
1452.9	1714.3
1458.13	1727.9
1463.36	1712
1468.58	1723.2
1473.8	1718.9
1479.02	1713
1484.23	1728.4
1489.44	1721.8
1494.65	1750.5
1499.85	1733.2
1505.05	1734.9
1510.25	1754
1515.44	1763.9
1520.63	1783.5
1525.82	1792.7
1531	1809.7
1536.18	1808
1541.36	1855.1
1546.54	1889.9
1551.71	1951.9
1556.87	2083.5
1562.04	2241.5
1567.2	2466.8
1572.36	2746.8
1577.52	2970.6
1582.67	2874.2
1587.82	2534.8
1592.96	2298.3
1598.11	2104.5
1603.24	2010.2
1608.38	1965.4
1613.51	1914.9
1618.64	1871.2
1623.77	1813
1628.89	1764.5
1634.01	1723.6
1639.13	1689.5
1644.25	1657.6
1649.36	1642
1654.47	1637.5
1659.57	1604
1664.67	1596.2
1669.77	1596.1
1674.87	1589.9
1679.96	1588.4
1685.05	1569.8
1690.13	1577.4
1695.22	1573.6
1700.3	1576.9
1705.37	1553.5
1710.45	1555.3
1715.52	1563.2
1720.58	1561.7
1725.65	1550.3
1730.71	1551.5
1735.77	1557
1740.82	1567.4
1745.87	1531.5
1750.92	1555.5
1755.97	1552.7
1761.01	1554
1766.05	1558.2
1771.09	1543
1776.12	1557.5
1781.15	1554.9
1786.18	1549.7
1791.2	1541.1
1796.22	1548.5
1801.24	1545.7
1806.25	1533.6
1811.26	1549.2
1816.27	1540.9
1821.28	1537.5
1826.28	1540
1831.28	1544.6
1836.28	1523.7
1841.27	1549.6
1846.26	1544.9
1851.25	1546.1
1856.23	1529.5
1861.21	1543
1866.19	1538.7
1871.17	1538.8
1876.14	1548.9
1881.11	1543.9
1886.07	1555.4
1891.04	1537.1
1896	1550.6
1900.95	1533
1905.91	1531
1910.86	1523.7
1915.81	1539.6
1920.75	1541.5
1925.69	1548.4
1930.63	1538.7
1935.57	1521.6
1940.5	1516.2
1945.43	1530.2
1950.36	1524.7
1955.28	1530.3
1960.2	1525.3
1965.12	1543
1970.04	1526.2
1974.95	1531.6
1979.86	1535.9
1984.76	1539.1
1989.67	1524.3
1994.57	1533.9
1999.47	1538.6
2004.36	1542.8
2009.25	1533.1
2014.14	1544.3
2019.02	1523.3
2023.91	1532.9
2028.79	1539.2
2033.66	1539.6
2038.54	1534.5
2043.41	1516.5
2048.27	1540.9
2053.14	1526.8
2058	1523
2062.86	1527.2
2067.72	1527.6
2072.57	1522.1
2077.42	1528
2082.27	1525.4
2087.11	1523.9
2091.95	1520.8
2096.79	1519.6
2101.63	1521.7
2106.46	1517.2
2111.29	1513
2116.11	1514.1
2120.94	1512.7
2125.76	1505.1
2130.58	1519
2135.39	1524.8
2140.21	1517.4
2145.01	1518.4
2149.82	1514.5
2154.62	1519.3
2159.43	1515.9
2164.22	1510.9
2169.02	1520.4
2173.81	1524.3
2178.6	1501.2
2183.39	1510.6
2188.17	1516.1
2192.95	1512.9
2197.73	1518.1
2202.5	1518.4
2207.28	1522.1
2212.04	1500.2
2216.81	1512.7
2221.57	1514.6
2226.33	1518.1
2231.09	1514.1
2235.85	1510.5
2240.6	1517.9
2245.35	1517.9
2250.1	1503.7
2254.84	1517
2259.58	1500.5
2264.32	1500.9
2269.05	1519.4
2273.79	1506.5
2278.52	1501.5
2283.24	1501.4
2287.97	1514.9
2292.69	1491.3
2297.4	1514.9
2302.12	1503.2
2306.83	1510
2311.54	1512.1
2316.25	1506.2
2320.95	1484.5
2325.66	1502.7
2330.35	1511.4
2335.05	1499.1
2339.74	1506.9
2344.43	1517
2349.12	1508
2353.81	1504.9
2358.49	1506
2363.17	1512.8
2367.84	1509.5
2372.52	1506.5
2377.19	1503.8
2381.86	1509.4
2386.52	1510.9
2391.18	1507.4
2395.84	1497.4
2400.5	1507.5
2405.15	1512
2409.81	1519.4
2414.45	1507.7
2419.1	1511.5
2423.74	1532
2428.38	1534.1
2433.02	1543.6
2437.66	1546.2
2442.29	1558.7
2446.92	1557.8
2451.55	1550.6
2456.17	1562.7
2460.79	1556.2
2465.41	1543.4
2470.03	1537.1
2474.64	1532.9
2479.25	1532.2
2483.86	1532.5
2488.46	1515.6
2493.07	1515.9
2497.67	1517.7
2502.26	1517.5
2506.86	1514.1
2511.45	1522
2516.04	1515.6
2520.62	1502.2
2525.21	1510.8
2529.79	1510
2534.37	1508.3
2538.94	1514.3
2543.51	1516.6
2548.08	1499
2552.65	1520.1
2557.22	1512.7
2561.78	1504.6
2566.34	1505.9
2570.89	1508.4
2575.45	1516.4
2580	1521
2584.55	1525.2
2589.1	1512.1
2593.64	1516.3
2598.18	1527.6
2602.72	1531.2
2607.25	1544
2611.79	1550.2
2616.32	1565.6
2620.84	1581.6
2625.37	1596
2629.89	1626.4
2634.41	1673.1
2638.93	1709.1
2643.44	1759.9
2647.95	1839.8
2652.46	1955.1
2656.97	2054.7
2661.47	2176.7
2665.97	2264.6
2670.47	2374.4
2674.97	2423.8
2679.46	2439
2683.95	2416.6
2688.44	2326.8
2692.93	2220.8
2697.41	2117.1
2701.89	2002
2706.37	1869.3
2710.84	1796.4
2715.32	1729.4
2719.79	1663.1
2724.25	1629.9
2728.72	1598.2
2733.18	1560.9
2737.64	1555.1
2742.1	1537.5
2746.55	1528
2751	1519.9
2755.45	1493.7
2759.9	1508
2764.34	1488.9
2768.79	1486.6
2773.22	1489.5
2777.66	1487.6
2782.1	1471.2
2786.53	1459.5
2790.96	1456.2
2795.38	1472.6
2799.81	1467.5
2804.23	1456.2
2808.65	1465.8
2813.06	1458.3
2817.48	1443.3
2821.89	1446.9
2826.3	1448
2830.7	1446.1
2835.1	1462.1
2839.51	1435.9
2843.9	1439.3
2848.3	1454.4
2852.69	1442.9
2857.08	1438
2861.47	1440.2
2865.86	1436.5
2870.24	1428.9
2874.62	1443.5
2879	1449.4
2883.38	1440.1
2887.75	1446.3
2892.12	1442.1
2896.49	1435
2900.85	1450.9
2905.22	1434.7
2909.58	1431.3
2913.94	1428.6
2918.29	1435.9
2922.65	1435
2927	1428.4
2931.35	1421.9
2935.69	1407.9
2940.03	1423.2
2944.38	1423.3
2948.71	1420.9
2953.05	1413.3
2957.38	1408.9
2961.71	1409.7
2966.04	1394.2
2970.37	1398.9
2974.69	1411.6
2979.01	1400.4
2983.33	1388.3
2987.65	1401
2991.96	1390.6
2996.27	1397.1
3000.58	1393.9
3004.89	1388.7
3009.19	1387.1
3013.5	1383.7
3017.79	1383.6
3022.09	1391.8
3026.39	1384.2
3030.68	1377.9
3034.97	1379.1
3039.25	1394.7
3043.54	1379.3
3047.82	1371.1
3052.1	1379
3056.38	1379.3
3060.65	1363.5
3064.93	1373.5
3069.2	1371.4
3073.46	1363.8
3077.73	1365.7
3081.99	1369.6
3086.25	1364.6
3090.51	1363.4
3094.77	1358.5
3099.02	1346.5
3103.27	1358.9
3107.52	1363.3
3111.77	1355.9
3116.01	1358.3
3120.25	1360.9
3124.49	1358.8
3128.73	1338.4
3132.96	1357.3
3137.19	1339.3
3141.42	1339.1
3145.65	1344.8
3149.87	1356.1
3154.1	1344.1
3158.32	1345.9
3162.53	1344.5
3166.75	1344.1
3170.96	1341.5
3175.17	1342.8
3179.38	1338.5
3183.59	1330.5
3187.79	1341.2
3191.99	1335.2
3196.19	1338.7
3200.39	1327.2
3204.58	1329.2
3208.77	1336.9
3212.96	1336.3
3217.15	1340.2
3221.33	1345
3225.52	1346.8
3229.7	1352.3
3233.87	1349.8
3238.05	1354.3
3242.22	1351.9
3246.39	1332.6
3250.56	1324.7
3254.73	1324.6
3258.89	1324.5
3263.05	1311.5
3267.21	1322.2
3271.37	1307
3275.52	1305.1
3279.68	1307.4
3283.83	1304.7
3287.97	1304.5
3292.12	1308.8
3296.26	1308.7
3300.4	1307.7
3304.54	1293.6
3308.68	1301.7
3312.81	1298.8
3316.94	1305.6
3321.07	1294.1
3325.2	1289.6
3329.33	1294.1
3333.45	1279.5
3337.57	1292.3
3341.69	1289.1
3345.8	1298.8
3349.92	1286.4
3354.03	1298.3
3358.14	1282.3
3362.24	1287.1
3366.35	1282.1
3370.45	1283.5
3374.55	1283.9
3378.65	1283.1
3382.74	1280.1
3386.83	1280
3390.93	1282.3
3395.01	1286.5
3399.1	1274.9
3403.18	1276
3407.27	1269.6
3411.35	1273.2
3415.42	1272.5
3419.5	1265.5
3423.57	1272.8
3427.64	1270.7
3431.71	1267.4
3435.78	1273.9
3439.84	1269.8
3443.9	1269.8
3447.96	1270.6
3452.02	1264.4
3456.07	1268.3
3460.13	1258.5
3464.18	1260.9
3468.23	1259.7
3472.27	1266.8
3476.32	1254.2
3480.36	1269.1
3484.4	1256.3
3488.44	1254.5
3492.47	1259.1
3496.5	1259
3500.54	1254.6
3504.56	1250.4
3508.59	1248.1
3512.62	1252.9
3516.64	1255.1
3520.66	1245.8
3524.67	1249.6
3528.69	1246.6
3532.7	1245.1
3536.72	1244.8
3540.72	1245.1
3544.73	1241.2
3548.74	1249.9
3552.74	1247.2
3556.74	1240.2
3560.74	1238.7
3564.73	1239.5
3568.73	1230.7
3572.72	1243.6
3576.71	1241.5
3580.7	1234.6
3584.68	1239.4
3588.66	1232.5
3592.64	1227.7
3596.62	1237.3
3600.6	1234.5
3604.57	1231.1
3608.55	1226.7
3612.52	1229.1
3616.48	1230.5
3620.45	1224.9
3624.41	1229.6
3628.38	1226.7
3632.34	1225.3
3636.29	1234.4
3640.25	1229.5
3644.2	1222.6
3648.15	1223.2
3652.1	1226.7
3656.05	1222.4
3659.99	1225.5
3663.94	1224.7
3667.88	1223.4
3671.81	1218
3675.75	1215.7
3679.68	1221.8
3683.62	1223.2
3687.55	1219.9
3691.47	1220.9
3695.4	1217.8
3699.32	1220.8
3703.24	1225.5
3707.16	1222.2
3711.08	1214
3715	1211.4
3718.91	1215.9
3722.82	1212
3726.73	1213.7
3730.64	1213.3
3734.54	1211.8
3738.44	1212.2
3742.34	1212.5
3746.24	1210.6
3750.14	1206.3
3754.03	1209.7
3757.92	1209.5
3761.81	1206.7
3765.7	1208.9
3769.59	1208.5
3773.47	1210.9
3775.41	1204.4