File: projects/Muestras y catálogo/Older versions/Raman_v1.0/Muestras_12-11-24/Data/Muestra 3_20x_zona1_rojo.txt
-174.488	1148.3
-168.221	1147.4
-161.957	1148.7
-155.697	1146
-149.442	1148.1
-143.191	1145.4
-136.943	1147.2
-130.7	1147.3
-124.461	1147.8
-118.226	1146.3
-111.995	1148.9
-105.768	1146
-99.5451	1148
-93.3263	1146.4
-87.1116	1148.2
-80.9009	1146.6
-74.6943	1147.8
-68.4917	1149
-62.2932	1148.6
-56.0987	1146.4
-49.9082	1147.2
-43.7218	1150.6
-37.5394	1148.7
-31.361	1148.2
-25.1866	1148.9
-19.0163	1147.9
-12.85	1147.9
-6.6877	1149.7
-0.529406	1166.4
5.62488	1178.1
11.7752	1152.5
17.9214	1150
24.0637	1146.7
30.202	1148.6
36.3363	1146.1
42.4666	1147.8
48.593	1148.8
54.7153	1147.8
60.8337	1149.2
66.9481	1149.4
73.0585	1149.9
79.165	1177.6
85.2675	1295.1
91.366	1373.3
97.4606	1380.6
103.551	1381.9
109.638	1362.8
115.721	1369.1
121.799	1345.6
127.874	1333.7
133.945	1324
140.012	1321.7
146.075	1308.1
152.134	1311.7
158.189	1304.1
164.241	1298.9
170.288	1298.7
176.332	1294.9
182.371	1295.2
188.407	1287.3
194.438	1289.7
200.466	1281.8
206.49	1288.7
212.51	1282
218.526	1286.7
224.538	1287.6
230.547	1294.7
236.551	1299.1
242.552	1301.4
248.548	1309.6
254.541	1297.9
260.53	1310.1
266.515	1310.5
272.497	1308.6
278.474	1317.4
284.447	1318.1
290.417	1322.6
296.383	1343.6
302.345	1358.4
308.303	1333.7
314.257	1316.2
320.208	1311.3
326.154	1302.8
332.097	1298.1
338.036	1284.9
343.971	1282.5
349.902	1277.1
355.83	1277.1
361.753	1277
367.673	1280.8
373.589	1259.1
379.501	1259.7
385.41	1253.1
391.314	1252.1
397.215	1252.5
403.112	1247.1
409.005	1244.6
414.895	1242
420.78	1245.3
426.662	1241.8
432.54	1239.6
438.414	1244.5
444.285	1228.9
450.152	1229.9
456.015	1214.6
461.874	1206.9
467.729	1216.8
473.581	1209.2
479.429	1219.7
485.273	1230.1
491.113	1247.2
496.95	1276
502.783	1362.7
508.612	1664.1
514.438	3182.1
520.259	5543.9
526.077	3437.5
531.892	2155.9
537.702	1713.7
543.509	1545.3
549.312	1456.4
555.112	1379.4
560.907	1357.1
566.699	1323.1
572.487	1313.1
578.272	1298.8
584.053	1287.6
589.83	1280.9
595.603	1272.7
601.373	1275.1
607.139	1285.6
612.902	1302.1
618.66	1297.2
624.415	1298.8
630.167	1262.6
635.914	1273
641.658	1272.5
647.399	1265.4
653.135	1262.1
658.869	1255
664.598	1269
670.324	1262.3
676.046	1265.7
681.764	1259.2
687.479	1253.5
693.19	1251.6
698.897	1245.5
704.601	1243.8
710.301	1233.4
715.998	1229.6
721.691	1234.4
727.38	1229.7
733.066	1230.9
738.748	1231.7
744.426	1236.2
750.101	1237.8
755.772	1236.8
761.44	1231.5
767.104	1223.4
772.764	1229.6
778.421	1232.8
784.074	1235.4
789.724	1235.2
795.37	1238.9
801.012	1239.6
806.651	1238.9
812.286	1240.7
817.918	1244.7
823.546	1240.3
829.171	1244.3
834.792	1236.2
840.409	1234.9
846.023	1234.9
851.633	1240.7
857.24	1231.3
862.843	1233.9
868.443	1241.4
874.039	1231
879.631	1238.1
885.22	1237.1
890.806	1239.3
896.387	1234.1
901.966	1243.6
907.541	1239.8
913.112	1242.8
918.68	1247.9
924.244	1268.6
929.805	1296.5
935.362	1364.9
940.915	1426.2
946.466	1422.4
952.012	1434.8
957.555	1423.9
963.095	1426.8
968.631	1439.3
974.164	1449.5
979.693	1428.8
985.219	1407.8
990.741	1358.9
996.259	1303.8
1001.77	1282.7
1007.29	1267.8
1012.79	1259.4
1018.3	1240
1023.8	1234.4
1029.3	1223.9
1034.79	1216.5
1040.28	1211.4
1045.77	1205.9
1051.26	1207.7
1056.74	1209.3
1062.21	1208.5
1067.69	1203.5
1073.16	1203.9
1078.62	1202.4
1084.09	1198.6
1089.55	1200.9
1095	1198.5
1100.46	1199
1105.91	1205.5
1111.35	1202.6
1116.79	1198.9
1122.23	1202.1
1127.67	1196.6
1133.1	1205.4
1138.53	1198.4
1143.96	1200.2
1149.38	1196.7
1154.8	1197.1
1160.21	1194.3
1165.62	1193.8
1171.03	1199.9
1176.44	1194
1181.84	1195.2
1187.24	1197.8
1192.63	1205.4
1198.03	1196.9
1203.41	1203.5
1208.8	1196.5
1214.18	1199.5
1219.56	1200.2
1224.93	1201.6
1230.3	1197
1235.67	1204.2
1241.04	1193.9
1246.4	1197.4
1251.76	1197.9
1257.11	1201.4
1262.46	1199.4
1267.81	1201.5
1273.15	1197.8
1278.5	1197.8
1283.83	1193.1
1289.17	1196.3
1294.5	1195.6
1299.83	1194.6
1305.15	1200.9
1310.47	1197.1
1315.79	1196.9
1321.11	1199.5
1326.42	1198.4
1331.73	1197
1337.03	1201.8
1342.33	1194.4
1347.63	1196.5
1352.92	1197.9
1358.22	1191.3
1363.5	1194.3
1368.79	1193.5
1374.07	1192.6
1379.35	1194.1
1384.62	1192.8
1389.9	1192
1395.16	1192.7
1400.43	1191.6
1405.69	1195.4
1410.95	1194
1416.21	1196.2
1421.46	1194.6
1426.71	1192.4
1431.95	1194.2
1437.19	1201.8
1442.43	1200.8
1447.67	1198.5
1452.9	1197
1458.13	1190.2
1463.36	1193.5
1468.58	1187.7
1473.8	1192.4
1479.02	1189.1
1484.23	1187.3
1489.44	1185.6
1494.65	1183.7
1499.85	1188.3
1505.05	1185.8
1510.25	1189.5
1515.44	1181.5
1520.63	1185.3
1525.82	1192.1
1531	1185.8
1536.18	1182.4
1541.36	1186.9
1546.54	1188
1551.71	1188.3
1556.87	1190.8
1562.04	1186.6
1567.2	1189
1572.36	1181.7
1577.52	1187.7
1582.67	1187.9
1587.82	1192.8
1592.96	1188.4
1598.11	1186.8
1603.24	1190.3
1608.38	1190.6
1613.51	1189.5
1618.64	1190.1
1623.77	1191.2
1628.89	1182.6
1634.01	1190.5
1639.13	1188
1644.25	1186.6
1649.36	1191.2
1654.47	1188.7
1659.57	1190.7
1664.67	1190.8
1669.77	1190.9
1674.87	1185.2
1679.96	1184
1685.05	1184.3
1690.13	1179.2
1695.22	1186.6
1700.3	1183.9
1705.37	1177.5
1710.45	1178.2
1715.52	1181.1
1720.58	1177.9
1725.65	1180.3
1730.71	1182.2
1735.77	1180.8
1740.82	1181
1745.87	1182
1750.92	1179.4
1755.97	1178
1761.01	1181.1
1766.05	1183.7
1771.09	1184.9
1776.12	1184.7
1781.15	1179
1786.18	1179.3
1791.2	1182
1796.22	1182.8
1801.24	1178.5
1806.25	1179.1
1811.26	1181.9
1816.27	1177
1821.28	1178.4
1826.28	1181.8
1831.28	1179.5
1836.28	1181.3
1841.27	1175.9
1846.26	1180.8
1851.25	1182.1
1856.23	1179.2
1861.21	1175.9
1866.19	1180.7
1871.17	1178.4
1876.14	1177.2
1881.11	1178.7
1886.07	1178.9
1891.04	1180.1
1896	1175.5
1900.95	1176.2
1905.91	1179.3
1910.86	1177.4
1915.81	1177.5
1920.75	1175.6
1925.69	1177.6
1930.63	1181.4
1935.57	1180.2
1940.5	1176.5
1945.43	1178
1950.36	1176.6
1955.28	1180.6
1960.2	1180.8
1965.12	1177.1
1970.04	1179.4
1974.95	1175.1
1979.86	1182.8
1984.76	1179.4
1989.67	1175.8
1994.57	1174.1
1999.47	1179.1
2004.36	1177.1
2009.25	1175.6
2014.14	1176.6
2019.02	1175.6
2023.91	1179.4
2028.79	1179
2033.66	1181.3
2038.54	1179.8
2043.41	1177.2
2048.27	1177.5
2053.14	1174.8
2058	1179.9
2062.86	1173.2
2067.72	1178.4
2072.57	1180.8
2077.42	1176.6
2082.27	1179
2087.11	1180.3
2091.95	1176.6
2096.79	1176.6
2101.63	1174.2
2106.46	1180.5
2111.29	1178.4
2116.11	1179.1
2120.94	1174.9
2125.76	1176.4
2130.58	1178.6
2135.39	1176.8
2140.21	1180.6
2145.01	1176.4
2149.82	1178.6
2154.62	1179.4
2159.43	1174.4
2164.22	1181.5
2169.02	1173.9
2173.81	1176.8
2178.6	1176.8
2183.39	1174.8
2188.17	1175.7
2192.95	1175.8
2197.73	1175.9
2202.5	1176.4
2207.28	1175.3
2212.04	1177.1
2216.81	1173.5
2221.57	1178.3
2226.33	1174
2231.09	1173.7
2235.85	1175.9
2240.6	1174.9
2245.35	1175.9
2250.1	1176.9
2254.84	1173.8
2259.58	1175.5
2264.32	1173
2269.05	1178.3
2273.79	1173.8
2278.52	1179.2
2283.24	1174.4
2287.97	1175.2
2292.69	1175.4
2297.4	1174.8
2302.12	1176.7
2306.83	1172.5
2311.54	1174.8
2316.25	1172.2
2320.95	1169
2325.66	1172.1
2330.35	1174.7
2335.05	1172.8
2339.74	1171.7
2344.43	1172.3
2349.12	1173.1
2353.81	1176.5
2358.49	1173.9
2363.17	1174.2
2367.84	1178.9
2372.52	1172.3
2377.19	1174.1
2381.86	1177.4
2386.52	1171.1
2391.18	1173.8
2395.84	1174.1
2400.5	1171.2
2405.15	1170.9
2409.81	1169.9
2414.45	1173.3
2419.1	1169.4
2423.74	1172.2
2428.38	1175
2433.02	1174.2
2437.66	1175.6
2442.29	1173.1
2446.92	1173.9
2451.55	1174.6
2456.17	1167.2
2460.79	1174.8
2465.41	1172.8
2470.03	1175.2
2474.64	1175.5
2479.25	1171.6
2483.86	1169.9
2488.46	1175.3
2493.07	1175.4
2497.67	1177.7
2502.26	1173.9
2506.86	1174.1
2511.45	1173.2
2516.04	1172.4
2520.62	1169.3
2525.21	1172
2529.79	1171.9
2534.37	1174.4
2538.94	1173.6
2543.51	1173.4
2548.08	1171.7
2552.65	1173.8
2557.22	1173.8
2561.78	1174.1
2566.34	1175.4
2570.89	1169.1
2575.45	1172
2580	1172
2584.55	1172.2
2589.1	1171.7
2593.64	1174.3
2598.18	1173.7
2602.72	1173.1
2607.25	1174.4
2611.79	1172.3
2616.32	1172.6
2620.84	1173.3
2625.37	1175.4
2629.89	1168.6
2634.41	1172
2638.93	1173.3
2643.44	1175
2647.95	1171
2652.46	1171.5
2656.97	1171
2661.47	1174.6
2665.97	1173.5
2670.47	1175.2
2674.97	1168.5
2679.46	1173.4
2683.95	1169.8
2688.44	1171.6
2692.93	1169.1
2697.41	1169.7
2701.89	1175.2
2706.37	1173.5
2710.84	1169
2715.32	1173.4
2719.79	1171.1
2724.25	1171.3
2728.72	1173.3
2733.18	1171
2737.64	1174
2742.1	1171.5
2746.55	1172.4
2751	1169.4
2755.45	1170.9
2759.9	1171.9
2764.34	1170.4
2768.79	1168.5
2773.22	1173
2777.66	1170.2
2782.1	1171.5
2786.53	1174.8
2790.96	1174.4
2795.38	1169.8
2799.81	1169
2804.23	1173
2808.65	1171.4
2813.06	1171
2817.48	1173
2821.89	1170
2826.3	1171.4
2830.7	1172.5
2835.1	1173.1
2839.51	1169.5
2843.9	1177.6
2848.3	1177.2
2852.69	1179.6
2857.08	1177.6
2861.47	1179.5
2865.86	1176.2
2870.24	1181
2874.62	1183.5
2879	1184.8
2883.38	1183.3
2887.75	1185
2892.12	1185.3
2896.49	1186.8
2900.85	1189.9
2905.22	1189.7
2909.58	1190.9
2913.94	1188.7
2918.29	1188.7
2922.65	1193
2927	1189.8
2931.35	1189.1
2935.69	1191.1
2940.03	1187.9
2944.38	1187.8
2948.71	1180.3
2953.05	1178.8
2957.38	1180.3
2961.71	1175.5
2966.04	1180.3
2970.37	1174.5
2974.69	1177.2
2979.01	1172.5
2983.33	1173.5
2987.65	1172.3
2991.96	1174.6
2996.27	1174.3
3000.58	1169.5
3004.89	1171.7
3009.19	1172.5
3013.5	1170.7
3017.79	1171.6
3022.09	1171.5
3026.39	1166.7
3030.68	1169.6
3034.97	1167.4
3039.25	1165.3
3043.54	1166.4
3047.82	1166.8
3052.1	1164.6
3056.38	1165.6
3060.65	1171.2
3064.93	1168.3
3069.2	1167.7
3073.46	1166.3
3077.73	1165.7
3081.99	1165.9
3086.25	1165
3090.51	1168.2
3094.77	1165.9
3099.02	1166.2
3103.27	1162.5
3107.52	1164.6
3111.77	1164.5
3116.01	1164.2
3120.25	1165.7
3124.49	1165.1
3128.73	1169
3132.96	1162.6
3137.19	1165.9
3141.42	1165
3145.65	1166
3149.87	1165.1
3154.1	1164.3
3158.32	1168.7
3162.53	1167.8
3166.75	1164.1
3170.96	1166
3175.17	1166.2
3179.38	1163.8
3183.59	1165.2
3187.79	1165.6
3191.99	1164.4
3196.19	1163.6
3200.39	1165
3204.58	1164.5
3208.77	1164.3
3212.96	1165.7
3217.15	1166.5
3221.33	1167.3
3225.52	1163.3
3229.7	1167.3
3233.87	1165.8
3238.05	1164.8
3242.22	1163.7
3246.39	1165.6
3250.56	1164
3254.73	1164.8
3258.89	1169.5
3263.05	1163.6
3267.21	1163.4
3271.37	1162.6
3275.52	1167.1
3279.68	1169
3283.83	1165.4
3287.97	1168.6
3292.12	1164
3296.26	1162.3
3300.4	1166.7
3304.54	1161.5
3308.68	1164.2
3312.81	1164.8
3316.94	1165.8
3321.07	1166.7
3325.2	1163.1
3329.33	1167
3333.45	1162.8
3337.57	1160.8
3341.69	1165.4
3345.8	1165.1
3349.92	1163.8
3354.03	1164.1
3358.14	1163.6
3362.24	1163.7
3366.35	1166.7
3370.45	1161.9
3374.55	1162.7
3378.65	1161.6
3382.74	1163.2
3386.83	1161.3
3390.93	1161.8
3395.01	1163
3399.1	1167.5
3403.18	1161.4
3407.27	1160.2
3411.35	1159.8
3415.42	1164
3419.5	1160.9
3423.57	1163.5
3427.64	1163.1
3431.71	1158.2
3435.78	1162.6
3439.84	1157.9
3443.9	1162.6
3447.96	1161.5
3452.02	1158.4
3456.07	1158.1
3460.13	1159.3
3464.18	1160.9
3468.23	1159.7
3472.27	1160.8
3476.32	1161.9
3480.36	1159.9
3484.4	1159.5
3488.44	1163.1
3492.47	1160.1
3496.5	1156.6
3500.54	1157.8
3504.56	1161.5
3508.59	1162.5
3512.62	1156.9
3516.64	1158.4
3520.66	1162.9
3524.67	1158.1
3528.69	1159.3
3532.7	1160.9
3536.72	1160.1
3540.72	1159
3544.73	1160.8
3548.74	1160.2
3552.74	1155.9
3556.74	1159.6
3560.74	1157.2
3564.73	1158.2
3568.73	1159.4
3572.72	1159.7
3576.71	1161.9
3580.7	1161.9
3584.68	1155.8
3588.66	1160.4
3592.64	1159.2
3596.62	1157.7
3600.6	1156.3
3604.57	1159.3
3608.55	1157.4
3612.52	1161.2
3616.48	1158.3
3620.45	1155
3624.41	1158.4
3628.38	1153.8
3632.34	1155.7
3636.29	1156.3
3640.25	1159.2
3644.2	1156
3648.15	1156.1
3652.1	1159.1
3656.05	1154.9
3659.99	1157.8
3663.94	1158.9
3667.88	1158.1
3671.81	1157.6
3675.75	1155.3
3679.68	1157.8
3683.62	1156
3687.55	1155.1
3691.47	1159
3695.4	1157.7
3699.32	1158.5
3703.24	1155.4
3707.16	1158.9
3711.08	1155.9
3715	1156.2
3718.91	1157.4
3722.82	1159.7
3726.73	1156
3730.64	1155.7
3734.54	1153.4
3738.44	1156
3742.34	1155.5
3746.24	1157
3750.14	1155.8
3754.03	1156
3757.92	1155.6
3761.81	1153.5
3765.7	1154.5
3769.59	1154.1
3773.47	1152.8
3775.41	1156.1