File: Muestras y catálogo/Older versions/Raman_v1.0/Muestras_12-11-24/Data/Muestra 1_100x_zona1_rojo.txt
-174.488	1149.3
-168.221	1147
-161.957	1146.1
-155.697	1148.5
-149.442	1149.9
-143.191	1150
-136.943	1148
-130.7	1146.1
-124.461	1148.7
-118.226	1147.6
-111.995	1150.7
-105.768	1148.6
-99.5451	1147.7
-93.3263	1148.6
-87.1116	1149.1
-80.9009	1148.4
-74.6943	1147.8
-68.4917	1147.2
-62.2932	1149.1
-56.0987	1149
-49.9082	1151.3
-43.7218	1149.1
-37.5394	1148.5
-31.361	1144.3
-25.1866	1146
-19.0163	1147.7
-12.85	1146.9
-6.6877	1148.6
-0.529406	1166.2
5.62488	1171.9
11.7752	1150.1
17.9214	1149.1
24.0637	1149.6
30.202	1148.4
36.3363	1147
42.4666	1147.4
48.593	1148.6
54.7153	1147.7
60.8337	1148.3
66.9481	1149.5
73.0585	1150.9
79.165	1172.7
85.2675	1299.4
91.366	1356
97.4606	1374.3
103.551	1370.8
109.638	1373.5
115.721	1373.8
121.799	1351.4
127.874	1343.3
133.945	1338.6
140.012	1327.5
146.075	1333.8
152.134	1326.3
158.189	1317.5
164.241	1319.5
170.288	1308.5
176.332	1308
182.371	1311.6
188.407	1305.6
194.438	1302
200.466	1302.2
206.49	1299.7
212.51	1307.8
218.526	1317.9
224.538	1321.3
230.547	1337.2
236.551	1339.2
242.552	1343.6
248.548	1344.8
254.541	1354.7
260.53	1361.2
266.515	1363.8
272.497	1366.7
278.474	1377.4
284.447	1378.7
290.417	1391.8
296.383	1419.8
302.345	1461.2
308.303	1421.4
314.257	1406.4
320.208	1384.1
326.154	1362.4
332.097	1350.3
338.036	1338.6
343.971	1335.8
349.902	1327
355.83	1319.6
361.753	1320.7
367.673	1315.9
373.589	1314.6
379.501	1299.4
385.41	1298
391.314	1296.3
397.215	1291.1
403.112	1286.2
409.005	1288.3
414.895	1281.3
420.78	1285.6
426.662	1293.7
432.54	1291.9
438.414	1290.5
444.285	1270.3
450.152	1256.4
456.015	1246.9
461.874	1240.7
467.729	1249.3
473.581	1251.5
479.429	1269.1
485.273	1282.7
491.113	1313.5
496.95	1359.3
502.783	1487.1
508.612	1854.4
514.438	4636.6
520.259	12664.5
526.077	5153.4
531.892	2348.3
537.702	1698
543.509	1484.2
549.312	1383.5
555.112	1328
560.907	1296.9
566.699	1272.1
572.487	1265.7
578.272	1261.2
584.053	1252.1
589.83	1242.5
595.603	1242.2
601.373	1245.7
607.139	1251.7
612.902	1264.2
618.66	1270.4
624.415	1262.9
630.167	1260.8
635.914	1247.1
641.658	1249.2
647.399	1251.3
653.135	1250.2
658.869	1254.6
664.598	1255.7
670.324	1254.1
676.046	1253.7
681.764	1244.1
687.479	1238.6
693.19	1231.3
698.897	1222.6
704.601	1217
710.301	1210.1
715.998	1216.9
721.691	1210.8
727.38	1216.3
733.066	1217.2
738.748	1211.1
744.426	1212.7
750.101	1216.8
755.772	1220.4
761.44	1224.6
767.104	1218.3
772.764	1225.6
778.421	1222.6
784.074	1223.9
789.724	1223.3
795.37	1233.8
801.012	1234.4
806.651	1238.1
812.286	1245.1
817.918	1235.7
823.546	1247.1
829.171	1240.1
834.792	1237.3
840.409	1235.3
846.023	1228.9
851.633	1239.9
857.24	1238.7
862.843	1235.7
868.443	1234.3
874.039	1235.9
879.631	1240.2
885.22	1240.1
890.806	1238.2
896.387	1236.7
901.966	1237.4
907.541	1240.3
913.112	1241.6
918.68	1258.1
924.244	1292.8
929.805	1380.2
935.362	1504.3
940.915	1596.2
946.466	1592.3
952.012	1609
957.555	1615.7
963.095	1602.8
968.631	1614.9
974.164	1612.1
979.693	1625
985.219	1557.9
990.741	1477.8
996.259	1386.3
1001.77	1333.1
1007.29	1311.4
1012.79	1282.8
1018.3	1268.2
1023.8	1247.7
1029.3	1228.1
1034.79	1215.3
1040.28	1203
1045.77	1195.6
1051.26	1190.4
1056.74	1197
1062.21	1193.4
1067.69	1188.6
1073.16	1194
1078.62	1189.9
1084.09	1190.6
1089.55	1187.8
1095	1194.5
1100.46	1193.5
1105.91	1193.3
1111.35	1192.4
1116.79	1184.1
1122.23	1186.8
1127.67	1187.8
1133.1	1185.2
1138.53	1187.5
1143.96	1184.3
1149.38	1185.2
1154.8	1188.1
1160.21	1181
1165.62	1179
1171.03	1182.3
1176.44	1181.4
1181.84	1183.8
1187.24	1179.9
1192.63	1182.5
1198.03	1180.9
1203.41	1183.7
1208.8	1178.7
1214.18	1182.8
1219.56	1188
1224.93	1182.6
1230.3	1184.6
1235.67	1180.9
1241.04	1185.2
1246.4	1185.4
1251.76	1185.9
1257.11	1186.7
1262.46	1185.6
1267.81	1186.3
1273.15	1181.9
1278.5	1182.7
1283.83	1184.4
1289.17	1183.6
1294.5	1188.7
1299.83	1186.9
1305.15	1186.6
1310.47	1185.4
1315.79	1188.5
1321.11	1185.1
1326.42	1189.2
1331.73	1190.5
1337.03	1194
1342.33	1192.2
1347.63	1196.2
1352.92	1190.4
1358.22	1185
1363.5	1186.7
1368.79	1188.6
1374.07	1187.6
1379.35	1186.4
1384.62	1185.3
1389.9	1186.4
1395.16	1187.4
1400.43	1188
1405.69	1189.4
1410.95	1188.9
1416.21	1191.6
1421.46	1184.8
1426.71	1183.3
1431.95	1185.1
1437.19	1188.9
1442.43	1189.4
1447.67	1186.7
1452.9	1190.4
1458.13	1188.4
1463.36	1186.2
1468.58	1185.3
1473.8	1186.8
1479.02	1181.4
1484.23	1183.7
1489.44	1182.4
1494.65	1182.2
1499.85	1186.3
1505.05	1183.2
1510.25	1187.3
1515.44	1184.5
1520.63	1185.9
1525.82	1183.5
1531	1191.6
1536.18	1192
1541.36	1193.8
1546.54	1197
1551.71	1204.4
1556.87	1205.4
1562.04	1224.9
1567.2	1255.8
1572.36	1314.7
1577.52	1441.8
1582.67	1606.1
1587.82	1509.9
1592.96	1353.7
1598.11	1267.7
1603.24	1230
1608.38	1216.4
1613.51	1203.9
1618.64	1197.5
1623.77	1196.4
1628.89	1190.7
1634.01	1187.3
1639.13	1187.1
1644.25	1182.8
1649.36	1185.3
1654.47	1185.9
1659.57	1182.8
1664.67	1175.9
1669.77	1176.8
1674.87	1181.2
1679.96	1180.9
1685.05	1172.9
1690.13	1182.9
1695.22	1176.8
1700.3	1174.8
1705.37	1176.3
1710.45	1178.2
1715.52	1178.4
1720.58	1177.6
1725.65	1177.3
1730.71	1176.4
1735.77	1173.8
1740.82	1173.5
1745.87	1175.7
1750.92	1179.1
1755.97	1175.2
1761.01	1174
1766.05	1174.7
1771.09	1175.9
1776.12	1174.6
1781.15	1176.7
1786.18	1176.2
1791.2	1175.3
1796.22	1173
1801.24	1172.7
1806.25	1175.7
1811.26	1178.5
1816.27	1175.2
1821.28	1177.9
1826.28	1175.7
1831.28	1175
1836.28	1173.3
1841.27	1176.4
1846.26	1175.5
1851.25	1179.2
1856.23	1182.8
1861.21	1179.8
1866.19	1178.8
1871.17	1181.8
1876.14	1177.4
1881.11	1175.8
1886.07	1181.5
1891.04	1175.7
1896	1173.1
1900.95	1178.5
1905.91	1175.2
1910.86	1173.9
1915.81	1173.9
1920.75	1173.7
1925.69	1174.2
1930.63	1173.7
1935.57	1175
1940.5	1175.2
1945.43	1172.3
1950.36	1172.4
1955.28	1176.3
1960.2	1175.6
1965.12	1174.5
1970.04	1176.3
1974.95	1176.6
1979.86	1174.5
1984.76	1175
1989.67	1176.7
1994.57	1172.5
1999.47	1176.6
2004.36	1176.3
2009.25	1173.3
2014.14	1172.9
2019.02	1174.7
2023.91	1172.6
2028.79	1172.1
2033.66	1177.2
2038.54	1173
2043.41	1170.4
2048.27	1175.5
2053.14	1174.9
2058	1169.5
2062.86	1174.6
2067.72	1173.7
2072.57	1175.4
2077.42	1173.9
2082.27	1175.9
2087.11	1174.5
2091.95	1175.4
2096.79	1173.4
2101.63	1171.5
2106.46	1173.3
2111.29	1170.6
2116.11	1170.5
2120.94	1177
2125.76	1173
2130.58	1173.8
2135.39	1170.1
2140.21	1173.8
2145.01	1175.9
2149.82	1172.5
2154.62	1172.8
2159.43	1179.1
2164.22	1173
2169.02	1171.5
2173.81	1173.7
2178.6	1171.2
2183.39	1173.5
2188.17	1172.9
2192.95	1174.7
2197.73	1176.5
2202.5	1173.7
2207.28	1174.9
2212.04	1175.6
2216.81	1172.9
2221.57	1174.2
2226.33	1173.2
2231.09	1175.1
2235.85	1172.7
2240.6	1171.1
2245.35	1170.2
2250.1	1173
2254.84	1171.8
2259.58	1169.2
2264.32	1170.7
2269.05	1174.6
2273.79	1172.1
2278.52	1175.2
2283.24	1174.3
2287.97	1172.5
2292.69	1173.5
2297.4	1174.8
2302.12	1171.9
2306.83	1173.6
2311.54	1177.8
2316.25	1175.2
2320.95	1172.1
2325.66	1179.3
2330.35	1180.5
2335.05	1177.1
2339.74	1175.3
2344.43	1175.1
2349.12	1173
2353.81	1175.7
2358.49	1176.1
2363.17	1172.4
2367.84	1174.8
2372.52	1175.8
2377.19	1173.1
2381.86	1176.7
2386.52	1174
2391.18	1179.2
2395.84	1172.9
2400.5	1174.9
2405.15	1175.1
2409.81	1174.2
2414.45	1176.2
2419.1	1176.6
2423.74	1177
2428.38	1182.1
2433.02	1181.7
2437.66	1190.4
2442.29	1196.5
2446.92	1200.3
2451.55	1209.6
2456.17	1211.1
2460.79	1204.3
2465.41	1198.7
2470.03	1191.2
2474.64	1195
2479.25	1191.6
2483.86	1190.6
2488.46	1186.7
2493.07	1185
2497.67	1182.6
2502.26	1184.2
2506.86	1179.6
2511.45	1180
2516.04	1182.9
2520.62	1181
2525.21	1183.1
2529.79	1179
2534.37	1179.5
2538.94	1180.6
2543.51	1177.8
2548.08	1175.7
2552.65	1172.2
2557.22	1182
2561.78	1184.8
2566.34	1179.1
2570.89	1180.8
2575.45	1179.4
2580	1183.4
2584.55	1181.6
2589.1	1182.6
2593.64	1187.3
2598.18	1180.1
2602.72	1192.5
2607.25	1190.2
2611.79	1191.9
2616.32	1196.3
2620.84	1199.3
2625.37	1213.2
2629.89	1215.1
2634.41	1238.5
2638.93	1250.9
2643.44	1280.7
2647.95	1319.9
2652.46	1396.2
2656.97	1489.5
2661.47	1623.6
2665.97	1742.3
2670.47	1850.4
2674.97	1886.9
2679.46	1831.9
2683.95	1723.4
2688.44	1595.9
2692.93	1495.1
2697.41	1394.4
2701.89	1331.1
2706.37	1291.2
2710.84	1254.7
2715.32	1231.9
2719.79	1221.5
2724.25	1211
2728.72	1208.1
2733.18	1196.2
2737.64	1196.3
2742.1	1189.4
2746.55	1185.4
2751	1185.5
2755.45	1185.1
2759.9	1182
2764.34	1181.7
2768.79	1180.3
2773.22	1179.6
2777.66	1176.4
2782.1	1177.7
2786.53	1178.5
2790.96	1179.1
2795.38	1173.8
2799.81	1177.8
2804.23	1174.7
2808.65	1171.3
2813.06	1174.9
2817.48	1173.3
2821.89	1177.3
2826.3	1170
2830.7	1173.5
2835.1	1174.4
2839.51	1177.3
2843.9	1173.4
2848.3	1173.6
2852.69	1170.5
2857.08	1172.3
2861.47	1169
2865.86	1175.6
2870.24	1169.7
2874.62	1171.2
2879	1172.7
2883.38	1171.4
2887.75	1167.2
2892.12	1168.9
2896.49	1171.7
2900.85	1168.6
2905.22	1172.3
2909.58	1174.2
2913.94	1167.3
2918.29	1171.4
2922.65	1168.8
2927	1168.7
2931.35	1168.8
2935.69	1171.1
2940.03	1170.5
2944.38	1169.8
2948.71	1170.8
2953.05	1165.3
2957.38	1165.8
2961.71	1167.1
2966.04	1170.2
2970.37	1164.9
2974.69	1168.7
2979.01	1169.7
2983.33	1168.9
2987.65	1165.1
2991.96	1167.6
2996.27	1169.7
3000.58	1171.8
3004.89	1171.1
3009.19	1166.5
3013.5	1165.2
3017.79	1165.8
3022.09	1164.7
3026.39	1168
3030.68	1167.5
3034.97	1169
3039.25	1163.4
3043.54	1164
3047.82	1164.6
3052.1	1163.3
3056.38	1162.2
3060.65	1168.2
3064.93	1166.2
3069.2	1167.5
3073.46	1168
3077.73	1163.3
3081.99	1164.4
3086.25	1165.6
3090.51	1162.7
3094.77	1165
3099.02	1167.8
3103.27	1167.2
3107.52	1163.7
3111.77	1166.5
3116.01	1165.2
3120.25	1165.6
3124.49	1165.5
3128.73	1165.6
3132.96	1165.4
3137.19	1164.8
3141.42	1164.9
3145.65	1164.5
3149.87	1164.7
3154.1	1166.2
3158.32	1163.4
3162.53	1164.9
3166.75	1162.7
3170.96	1163.7
3175.17	1165.8
3179.38	1163
3183.59	1164.4
3187.79	1163.5
3191.99	1165.6
3196.19	1164.5
3200.39	1163.1
3204.58	1163
3208.77	1164.1
3212.96	1165.5
3217.15	1165.6
3221.33	1164.4
3225.52	1168.4
3229.7	1171.4
3233.87	1178.7
3238.05	1188
3242.22	1194.8
3246.39	1185.5
3250.56	1181.4
3254.73	1172.8
3258.89	1169
3263.05	1164.3
3267.21	1163.9
3271.37	1161.8
3275.52	1160.8
3279.68	1162.9
3283.83	1165.5
3287.97	1159.7
3292.12	1160.9
3296.26	1162
3300.4	1162
3304.54	1162.3
3308.68	1161.2
3312.81	1162
3316.94	1159.1
3321.07	1166.5
3325.2	1159.1
3329.33	1163.1
3333.45	1160.8
3337.57	1158
3341.69	1159.3
3345.8	1158.5
3349.92	1163.3
3354.03	1163.8
3358.14	1158.4
3362.24	1158.9
3366.35	1161.3
3370.45	1162.3
3374.55	1158.1
3378.65	1158.3
3382.74	1160.3
3386.83	1162.8
3390.93	1158.4
3395.01	1160.6
3399.1	1159.6
3403.18	1160.4
3407.27	1157.4
3411.35	1159.5
3415.42	1160.1
3419.5	1159.2
3423.57	1158.7
3427.64	1160.6
3431.71	1160.1
3435.78	1158.7
3439.84	1160.9
3443.9	1156.9
3447.96	1155.8
3452.02	1161.2
3456.07	1159
3460.13	1159.8
3464.18	1159.2
3468.23	1160
3472.27	1158.2
3476.32	1159.3
3480.36	1160.6
3484.4	1158.4
3488.44	1162
3492.47	1156.9
3496.5	1158
3500.54	1159.6
3504.56	1157.6
3508.59	1155.1
3512.62	1158.5
3516.64	1161.1
3520.66	1156.9
3524.67	1158.8
3528.69	1159
3532.7	1154.9
3536.72	1156.9
3540.72	1156.8
3544.73	1160
3548.74	1157.2
3552.74	1157.9
3556.74	1157.4
3560.74	1155.7
3564.73	1159.7
3568.73	1158.5
3572.72	1156
3576.71	1162
3580.7	1154.3
3584.68	1156.8
3588.66	1156.4
3592.64	1154
3596.62	1156.5
3600.6	1155.3
3604.57	1156.1
3608.55	1155.4
3612.52	1156.2
3616.48	1153.5
3620.45	1154.5
3624.41	1156.3
3628.38	1156.8
3632.34	1155.5
3636.29	1156.5
3640.25	1153.6
3644.2	1152.3
3648.15	1157.4
3652.1	1158.5
3656.05	1154.4
3659.99	1156.7
3663.94	1154.1
3667.88	1156.6
3671.81	1157.2
3675.75	1154.9
3679.68	1155.1
3683.62	1156.4
3687.55	1155
3691.47	1154.8
3695.4	1157.9
3699.32	1156.7
3703.24	1154.5
3707.16	1155.1
3711.08	1154.6
3715	1154.1
3718.91	1153.8
3722.82	1155.4
3726.73	1152.7
3730.64	1157.6
3734.54	1155.7
3738.44	1154
3742.34	1154.8
3746.24	1153.1
3750.14	1154.2
3754.03	1156.5
3757.92	1154.9
3761.81	1153.3
3765.7	1154
3769.59	1155.5
3773.47	1154.9
3775.41	1151.5