File: Muestras y catálogo/Older versions/Raman_v1.0/Muestras_12-11-24/Data/Muestra 2_100x_zona1_rojo.txt
-174.488	1150.1
-168.221	1149.3
-161.957	1147.2
-155.697	1147.2
-149.442	1147.8
-143.191	1148.5
-136.943	1149.2
-130.7	1148.4
-124.461	1149.8
-118.226	1148.5
-111.995	1148.6
-105.768	1149
-99.5451	1147.7
-93.3263	1147.2
-87.1116	1148.7
-80.9009	1149.1
-74.6943	1148.1
-68.4917	1148.1
-62.2932	1147.9
-56.0987	1151.7
-49.9082	1147.7
-43.7218	1149.6
-37.5394	1148.7
-31.361	1148.5
-25.1866	1147.9
-19.0163	1147.8
-12.85	1148.5
-6.6877	1147.7
-0.529406	1152.5
5.62488	1155
11.7752	1149.7
17.9214	1147.4
24.0637	1148.7
30.202	1147.9
36.3363	1149.3
42.4666	1147.6
48.593	1147.4
54.7153	1149.1
60.8337	1148.7
66.9481	1146.9
73.0585	1149
79.165	1177.3
85.2675	1345.5
91.366	1428
97.4606	1470.3
103.551	1463.1
109.638	1490
115.721	1491.7
121.799	1461.7
127.874	1449.4
133.945	1420
140.012	1402.5
146.075	1411.1
152.134	1410.6
158.189	1413.5
164.241	1385.7
170.288	1404.6
176.332	1392.8
182.371	1392.7
188.407	1389.1
194.438	1378.1
200.466	1392.1
206.49	1387.1
212.51	1393.7
218.526	1403
224.538	1397.5
230.547	1421.9
236.551	1412
242.552	1426.3
248.548	1431.9
254.541	1425.9
260.53	1442.3
266.515	1448.2
272.497	1440.4
278.474	1440.4
284.447	1453
290.417	1466.3
296.383	1486.7
302.345	1500.9
308.303	1482.3
314.257	1459.9
320.208	1442.4
326.154	1439.5
332.097	1432.1
338.036	1434.6
343.971	1417.6
349.902	1414.2
355.83	1415.3
361.753	1420.1
367.673	1406
373.589	1414.7
379.501	1405.2
385.41	1393.6
391.314	1399.2
397.215	1395.6
403.112	1392.6
409.005	1401.8
414.895	1395.8
420.78	1390.6
426.662	1396.6
432.54	1395.1
438.414	1390.5
444.285	1389.6
450.152	1383.7
456.015	1368.2
461.874	1359.7
467.729	1366.9
473.581	1368.3
479.429	1374.5
485.273	1389.9
491.113	1405
496.95	1440.5
502.783	1509.4
508.612	1756.8
514.438	3645.3
520.259	8852.9
526.077	3770
531.892	2030.6
537.702	1629.8
543.509	1498.3
549.312	1440.1
555.112	1409.6
560.907	1401.3
566.699	1386
572.487	1374
578.272	1373.5
584.053	1372.3
589.83	1361.9
595.603	1359
601.373	1361.8
607.139	1371.1
612.902	1376
618.66	1382.5
624.415	1388.4
630.167	1376.8
635.914	1369.3
641.658	1380.7
647.399	1372.7
653.135	1369.6
658.869	1377.6
664.598	1375
670.324	1376.7
676.046	1376.1
681.764	1380.1
687.479	1357.3
693.19	1361.8
698.897	1359.6
704.601	1359.9
710.301	1368.2
715.998	1359.5
721.691	1355.2
727.38	1359.1
733.066	1351.3
738.748	1350.2
744.426	1354.5
750.101	1366.1
755.772	1354.9
761.44	1358.4
767.104	1367.6
772.764	1368.8
778.421	1363.5
784.074	1353.5
789.724	1364.9
795.37	1360.5
801.012	1364
806.651	1365.5
812.286	1382
817.918	1385.1
823.546	1378.7
829.171	1387.4
834.792	1371.2
840.409	1375.1
846.023	1377.7
851.633	1381.8
857.24	1385.5
862.843	1383.8
868.443	1374.9
874.039	1377.3
879.631	1387.4
885.22	1389.4
890.806	1377.4
896.387	1373.4
901.966	1382.1
907.541	1385.9
913.112	1381.7
918.68	1399.3
924.244	1419.8
929.805	1480.6
935.362	1575.5
940.915	1621
946.466	1643.3
952.012	1630.8
957.555	1648.9
963.095	1639
968.631	1638.9
974.164	1658.8
979.693	1646.9
985.219	1624.8
990.741	1561.2
996.259	1509.3
1001.77	1475.8
1007.29	1453.1
1012.79	1434.9
1018.3	1428.9
1023.8	1424.8
1029.3	1398
1034.79	1392.2
1040.28	1393.1
1045.77	1396.7
1051.26	1395.2
1056.74	1394.6
1062.21	1390
1067.69	1399.7
1073.16	1404.9
1078.62	1407.3
1084.09	1418
1089.55	1408.5
1095	1405.8
1100.46	1421.7
1105.91	1432.2
1111.35	1421.1
1116.79	1416.6
1122.23	1442.6
1127.67	1442.4
1133.1	1447.5
1138.53	1447
1143.96	1447
1149.38	1460.7
1154.8	1447.1
1160.21	1465.6
1165.62	1458.3
1171.03	1457.1
1176.44	1476.6
1181.84	1474.6
1187.24	1471.6
1192.63	1491.3
1198.03	1489.3
1203.41	1488.8
1208.8	1499.9
1214.18	1498.4
1219.56	1519
1224.93	1528.4
1230.3	1519
1235.67	1517.8
1241.04	1515.5
1246.4	1524
1251.76	1535.6
1257.11	1533.6
1262.46	1538.1
1267.81	1558.4
1273.15	1554.4
1278.5	1566.8
1283.83	1575.2
1289.17	1574.4
1294.5	1591.7
1299.83	1607.3
1305.15	1608
1310.47	1615.9
1315.79	1624.8
1321.11	1651.7
1326.42	1659.3
1331.73	1704.3
1337.03	1732.3
1342.33	1756.3
1347.63	1741.4
1352.92	1731.7
1358.22	1718.1
1363.5	1675.5
1368.79	1663.8
1374.07	1659.6
1379.35	1644.5
1384.62	1641.2
1389.9	1642.1
1395.16	1638.6
1400.43	1650.1
1405.69	1635
1410.95	1668.2
1416.21	1660.8
1421.46	1647.9
1426.71	1658
1431.95	1651
1437.19	1642.3
1442.43	1650.2
1447.67	1636.4
1452.9	1632.9
1458.13	1645.2
1463.36	1629.9
1468.58	1647.9
1473.8	1658.2
1479.02	1657.4
1484.23	1657.3
1489.44	1672.9
1494.65	1684.2
1499.85	1672.6
1505.05	1682.2
1510.25	1680.6
1515.44	1693.2
1520.63	1727.6
1525.82	1743.8
1531	1765.6
1536.18	1792.8
1541.36	1841.9
1546.54	1894.2
1551.71	2003.5
1556.87	2194.4
1562.04	2532.6
1567.2	3093.8
1572.36	3758.8
1577.52	3885.3
1582.67	3352.6
1587.82	2702.8
1592.96	2326.3
1598.11	2089.8
1603.24	1928.4
1608.38	1851.1
1613.51	1775.5
1618.64	1696.3
1623.77	1633
1628.89	1596.1
1634.01	1554.7
1639.13	1528.1
1644.25	1511.1
1649.36	1494.5
1654.47	1462.8
1659.57	1458
1664.67	1444.4
1669.77	1438.7
1674.87	1431.4
1679.96	1418.7
1685.05	1423.2
1690.13	1418.7
1695.22	1412.2
1700.3	1409.2
1705.37	1416.3
1710.45	1406.3
1715.52	1399.3
1720.58	1394.5
1725.65	1385.6
1730.71	1394.8
1735.77	1383.5
1740.82	1383.8
1745.87	1384
1750.92	1390.6
1755.97	1389.5
1761.01	1389.7
1766.05	1388
1771.09	1380.6
1776.12	1392.9
1781.15	1387.8
1786.18	1382.2
1791.2	1380.8
1796.22	1382.1
1801.24	1387.1
1806.25	1372.3
1811.26	1381.1
1816.27	1377.5
1821.28	1372
1826.28	1378
1831.28	1360.9
1836.28	1377.8
1841.27	1376.1
1846.26	1371.3
1851.25	1367.5
1856.23	1371.7
1861.21	1376.5
1866.19	1389.3
1871.17	1381.3
1876.14	1381.2
1881.11	1375.7
1886.07	1375.5
1891.04	1377
1896	1368.3
1900.95	1373.1
1905.91	1378.8
1910.86	1373.1
1915.81	1366.6
1920.75	1368.2
1925.69	1373.6
1930.63	1361.4
1935.57	1375.9
1940.5	1367.3
1945.43	1377.8
1950.36	1372.2
1955.28	1365.9
1960.2	1362.9
1965.12	1351.8
1970.04	1361.7
1974.95	1367.7
1979.86	1356.6
1984.76	1353.9
1989.67	1370
1994.57	1374.5
1999.47	1365.2
2004.36	1372
2009.25	1378.8
2014.14	1369.3
2019.02	1372.7
2023.91	1374.8
2028.79	1352.5
2033.66	1365.3
2038.54	1370.9
2043.41	1358.2
2048.27	1366.1
2053.14	1362.3
2058	1347.7
2062.86	1349.9
2067.72	1355.6
2072.57	1358.7
2077.42	1365.8
2082.27	1364.4
2087.11	1348.9
2091.95	1361.8
2096.79	1352.3
2101.63	1366.8
2106.46	1355.4
2111.29	1354.2
2116.11	1355.8
2120.94	1348.9
2125.76	1356.4
2130.58	1355.1
2135.39	1345.3
2140.21	1355.5
2145.01	1348.1
2149.82	1352.8
2154.62	1349.6
2159.43	1358.2
2164.22	1367.2
2169.02	1346.2
2173.81	1359.5
2178.6	1347.8
2183.39	1355.8
2188.17	1352.4
2192.95	1355.4
2197.73	1353.9
2202.5	1353.3
2207.28	1353.7
2212.04	1358
2216.81	1357.3
2221.57	1348.6
2226.33	1348.2
2231.09	1351.1
2235.85	1345.4
2240.6	1357.9
2245.35	1349.5
2250.1	1356.7
2254.84	1346.9
2259.58	1354.9
2264.32	1349.2
2269.05	1350.7
2273.79	1352.7
2278.52	1340.4
2283.24	1337.9
2287.97	1346.4
2292.69	1352.7
2297.4	1350.4
2302.12	1349.3
2306.83	1354.1
2311.54	1353.2
2316.25	1348
2320.95	1354.9
2325.66	1354.3
2330.35	1348.5
2335.05	1346.4
2339.74	1353.9
2344.43	1354.7
2349.12	1357.4
2353.81	1347.4
2358.49	1351.6
2363.17	1342.5
2367.84	1350.8
2372.52	1354
2377.19	1361.2
2381.86	1356.8
2386.52	1349.8
2391.18	1351.8
2395.84	1359.5
2400.5	1365.8
2405.15	1365.1
2409.81	1370.5
2414.45	1372.3
2419.1	1382.2
2423.74	1379.8
2428.38	1405.1
2433.02	1425.2
2437.66	1432.3
2442.29	1434.9
2446.92	1422.9
2451.55	1437.6
2456.17	1411.5
2460.79	1407.6
2465.41	1414.1
2470.03	1390.8
2474.64	1397.3
2479.25	1398.1
2483.86	1387.4
2488.46	1383.2
2493.07	1378.6
2497.67	1385.7
2502.26	1372.5
2506.86	1373
2511.45	1382.7
2516.04	1375.6
2520.62	1379.1
2525.21	1372
2529.79	1370.3
2534.37	1367.4
2538.94	1383.3
2543.51	1372.8
2548.08	1373.9
2552.65	1376.8
2557.22	1374.2
2561.78	1382.3
2566.34	1373.1
2570.89	1386.8
2575.45	1387.9
2580	1378.3
2584.55	1385.6
2589.1	1399.6
2593.64	1399.8
2598.18	1401.7
2602.72	1411.9
2607.25	1429.2
2611.79	1434
2616.32	1440.9
2620.84	1467.1
2625.37	1484.4
2629.89	1492.3
2634.41	1534.4
2638.93	1580.4
2643.44	1626.7
2647.95	1734.6
2652.46	1843.4
2656.97	1961.9
2661.47	2167.8
2665.97	2381.8
2670.47	2612.9
2674.97	2816.1
2679.46	2914.4
2683.95	2945.6
2688.44	2850.6
2692.93	2666.9
2697.41	2416.6
2701.89	2189.4
2706.37	2010
2710.84	1871.5
2715.32	1747.6
2719.79	1664.3
2724.25	1594.9
2728.72	1533.8
2733.18	1505.2
2737.64	1488.3
2742.1	1444.7
2746.55	1441.8
2751	1424.2
2755.45	1406
2759.9	1400.1
2764.34	1387.7
2768.79	1390.7
2773.22	1386
2777.66	1372.4
2782.1	1369.1
2786.53	1367.2
2790.96	1358.2
2795.38	1359.4
2799.81	1363.3
2804.23	1348.7
2808.65	1344.2
2813.06	1348.6
2817.48	1335.5
2821.89	1348.3
2826.3	1349.7
2830.7	1340.5
2835.1	1337.1
2839.51	1338.1
2843.9	1337.2
2848.3	1335.4
2852.69	1338
2857.08	1336.4
2861.47	1329.5
2865.86	1323.4
2870.24	1329.3
2874.62	1331.3
2879	1330.3
2883.38	1329
2887.75	1331.7
2892.12	1324
2896.49	1322.6
2900.85	1327.1
2905.22	1323
2909.58	1324.1
2913.94	1326.8
2918.29	1321.4
2922.65	1322.6
2927	1324.4
2931.35	1314.5
2935.69	1317.6
2940.03	1316.4
2944.38	1311.4
2948.71	1311.8
2953.05	1310.2
2957.38	1300.9
2961.71	1305.3
2966.04	1298.2
2970.37	1299.2
2974.69	1306.2
2979.01	1298.9
2983.33	1287.6
2987.65	1290
2991.96	1289.5
2996.27	1291.7
3000.58	1294.3
3004.89	1288
3009.19	1289.4
3013.5	1287
3017.79	1284.7
3022.09	1275.5
3026.39	1278.1
3030.68	1285.1
3034.97	1277
3039.25	1282.6
3043.54	1275.2
3047.82	1279.6
3052.1	1279.2
3056.38	1278.9
3060.65	1266.9
3064.93	1267.8
3069.2	1274.3
3073.46	1266.8
3077.73	1269.6
3081.99	1273.1
3086.25	1271.2
3090.51	1267.5
3094.77	1265.7
3099.02	1266.6
3103.27	1266.3
3107.52	1266.8
3111.77	1263.7
3116.01	1263
3120.25	1262.9
3124.49	1255.1
3128.73	1264.5
3132.96	1258.5
3137.19	1262.9
3141.42	1261.6
3145.65	1256.8
3149.87	1262.2
3154.1	1264.9
3158.32	1263.2
3162.53	1260.1
3166.75	1259.7
3170.96	1259.3
3175.17	1259.3
3179.38	1253.3
3183.59	1255.9
3187.79	1254.1
3191.99	1254.4
3196.19	1254.2
3200.39	1255.6
3204.58	1249.2
3208.77	1254.7
3212.96	1259.4
3217.15	1269.5
3221.33	1286.9
3225.52	1286.2
3229.7	1292
3233.87	1286.2
3238.05	1279.2
3242.22	1265.8
3246.39	1261.3
3250.56	1247.5
3254.73	1242.1
3258.89	1242.4
3263.05	1240.4
3267.21	1228.2
3271.37	1237.1
3275.52	1233.1
3279.68	1225.9
3283.83	1229.2
3287.97	1220.5
3292.12	1224.8
3296.26	1233.1
3300.4	1221.4
3304.54	1224.8
3308.68	1226
3312.81	1225.6
3316.94	1230.4
3321.07	1226.9
3325.2	1219
3329.33	1227.7
3333.45	1218.1
3337.57	1225.2
3341.69	1218.7
3345.8	1221.3
3349.92	1220.7
3354.03	1216.7
3358.14	1213.2
3362.24	1218.9
3366.35	1218.3
3370.45	1214.6
3374.55	1220.2
3378.65	1215.8
3382.74	1220.2
3386.83	1214.9
3390.93	1219.4
3395.01	1214.9
3399.1	1216.2
3403.18	1217.8
3407.27	1213.6
3411.35	1212.8
3415.42	1212.3
3419.5	1210.7
3423.57	1212.8
3427.64	1213.3
3431.71	1209.1
3435.78	1212.4
3439.84	1212.7
3443.9	1207.8
3447.96	1210.2
3452.02	1207
3456.07	1211.9
3460.13	1202.3
3464.18	1206.9
3468.23	1202.8
3472.27	1212.3
3476.32	1200.9
3480.36	1206.8
3484.4	1205.1
3488.44	1198.5
3492.47	1203.8
3496.5	1204.3
3500.54	1199.4
3504.56	1206.7
3508.59	1201.9
3512.62	1202.6
3516.64	1198.7
3520.66	1201.3
3524.67	1194.9
3528.69	1197.9
3532.7	1198.1
3536.72	1197.4
3540.72	1192.4
3544.73	1196.3
3548.74	1196
3552.74	1196.8
3556.74	1200.1
3560.74	1196.4
3564.73	1199.9
3568.73	1195.6
3572.72	1196.1
3576.71	1192.8
3580.7	1192.3
3584.68	1196.5
3588.66	1191.7
3592.64	1193.8
3596.62	1188.8
3600.6	1194.6
3604.57	1190.6
3608.55	1193.1
3612.52	1191.3
3616.48	1192.4
3620.45	1194.2
3624.41	1189
3628.38	1185
3632.34	1189.3
3636.29	1187.5
3640.25	1188.9
3644.2	1187
3648.15	1186.9
3652.1	1186.1
3656.05	1191.8
3659.99	1186.9
3663.94	1182.9
3667.88	1187.2
3671.81	1184.2
3675.75	1181.8
3679.68	1187.8
3683.62	1186.1
3687.55	1187.5
3691.47	1184.3
3695.4	1182.9
3699.32	1179.6
3703.24	1186.8
3707.16	1182.5
3711.08	1181.5
3715	1182.7
3718.91	1178.6
3722.82	1180.6
3726.73	1183.8
3730.64	1180.8
3734.54	1177.2
3738.44	1181.1
3742.34	1178.8
3746.24	1179.4
3750.14	1175.9
3754.03	1179.2
3757.92	1180
3761.81	1174.1
3765.7	1181.9
3769.59	1177.2
3773.47	1176.3
3775.41	1177.8