File: Muestras y catálogo/Older versions/Raman_v1.0/Muestras_12-11-24/Data/Muestra 1_100x_zona2_rojo.txt
-174.488	1147.4
-168.221	1151
-161.957	1148.1
-155.697	1147.5
-149.442	1148.5
-143.191	1148.8
-136.943	1147.4
-130.7	1148.5
-124.461	1148.1
-118.226	1146.5
-111.995	1149.7
-105.768	1147.6
-99.5451	1146.7
-93.3263	1148.7
-87.1116	1148.7
-80.9009	1147.1
-74.6943	1146.8
-68.4917	1149.6
-62.2932	1149.8
-56.0987	1147.8
-49.9082	1147.9
-43.7218	1148.5
-37.5394	1149.6
-31.361	1147.6
-25.1866	1148.7
-19.0163	1149.6
-12.85	1145.7
-6.6877	1148.2
-0.529406	1150.6
5.62488	1152.4
11.7752	1148.8
17.9214	1147.3
24.0637	1148.3
30.202	1148.3
36.3363	1148.5
42.4666	1147.6
48.593	1148.7
54.7153	1148.4
60.8337	1147.8
66.9481	1149.5
73.0585	1150.5
79.165	1160.5
85.2675	1231.2
91.366	1274.6
97.4606	1275.3
103.551	1276.5
109.638	1273.4
115.721	1269.2
121.799	1266.2
127.874	1256.2
133.945	1254
140.012	1250.9
146.075	1251.7
152.134	1246.6
158.189	1246
164.241	1243.9
170.288	1243.7
176.332	1241.9
182.371	1239.3
188.407	1241.2
194.438	1234.9
200.466	1234.9
206.49	1235.9
212.51	1237.1
218.526	1244.3
224.538	1251.5
230.547	1258.9
236.551	1254.8
242.552	1256.9
248.548	1265.4
254.541	1267.9
260.53	1265
266.515	1276.1
272.497	1271.1
278.474	1279.9
284.447	1281.9
290.417	1289.6
296.383	1308.9
302.345	1324
308.303	1301.4
314.257	1293
320.208	1278.3
326.154	1273.6
332.097	1267.8
338.036	1260.7
343.971	1261.8
349.902	1257.8
355.83	1244.5
361.753	1240
367.673	1245.7
373.589	1237.3
379.501	1233.2
385.41	1236.8
391.314	1229.4
397.215	1231.1
403.112	1225.7
409.005	1227.5
414.895	1227.4
420.78	1228.9
426.662	1229.5
432.54	1236.7
438.414	1227.1
444.285	1219.8
450.152	1208.7
456.015	1207.3
461.874	1200.5
467.729	1207.4
473.581	1210.6
479.429	1218.6
485.273	1233.8
491.113	1254.1
496.95	1274.3
502.783	1323.9
508.612	1545.3
514.438	3086.7
520.259	7619.6
526.077	3280.2
531.892	1773
537.702	1436.3
543.509	1332.3
549.312	1271.8
555.112	1243.2
560.907	1227.5
566.699	1211.8
572.487	1204.5
578.272	1201.4
584.053	1203.5
589.83	1200.5
595.603	1198.1
601.373	1201
607.139	1212.5
612.902	1211.7
618.66	1218.2
624.415	1212.1
630.167	1201.3
635.914	1204.7
641.658	1200.8
647.399	1194.8
653.135	1201.3
658.869	1197.4
664.598	1203.5
670.324	1206.6
676.046	1206.1
681.764	1199.4
687.479	1202.6
693.19	1198.1
698.897	1194.4
704.601	1185.7
710.301	1190.6
715.998	1187.4
721.691	1183.7
727.38	1186.5
733.066	1185.8
738.748	1185.2
744.426	1189.6
750.101	1183.5
755.772	1188.5
761.44	1191.1
767.104	1192.2
772.764	1192.4
778.421	1187.8
784.074	1195.5
789.724	1197.6
795.37	1194.7
801.012	1196.6
806.651	1199.6
812.286	1202
817.918	1198.2
823.546	1203.7
829.171	1199.1
834.792	1201.1
840.409	1193.7
846.023	1197
851.633	1197.5
857.24	1196.2
862.843	1196.6
868.443	1193.2
874.039	1194.9
879.631	1204.3
885.22	1204.7
890.806	1197.8
896.387	1200.8
901.966	1198.7
907.541	1201.2
913.112	1204.2
918.68	1203.2
924.244	1224.9
929.805	1268.7
935.362	1336.9
940.915	1381
946.466	1396.8
952.012	1387.6
957.555	1401
963.095	1392
968.631	1395.7
974.164	1406.2
979.693	1404.5
985.219	1382.1
990.741	1317.3
996.259	1272.8
1001.77	1248.2
1007.29	1236.9
1012.79	1224.5
1018.3	1217.6
1023.8	1204.7
1029.3	1194.2
1034.79	1188.5
1040.28	1178.8
1045.77	1178
1051.26	1174.5
1056.74	1172
1062.21	1176
1067.69	1182.2
1073.16	1171.9
1078.62	1172.2
1084.09	1171.6
1089.55	1179.3
1095	1173.9
1100.46	1176.1
1105.91	1175.1
1111.35	1170.2
1116.79	1173.2
1122.23	1174.4
1127.67	1169.3
1133.1	1175.5
1138.53	1174.4
1143.96	1172.1
1149.38	1169.2
1154.8	1173.2
1160.21	1171
1165.62	1166.7
1171.03	1173
1176.44	1171.1
1181.84	1173.2
1187.24	1171
1192.63	1168.1
1198.03	1171.4
1203.41	1170.4
1208.8	1170
1214.18	1171.1
1219.56	1170.7
1224.93	1173.1
1230.3	1170.1
1235.67	1171.8
1241.04	1176.1
1246.4	1174.7
1251.76	1173.8
1257.11	1175.8
1262.46	1174.7
1267.81	1172.7
1273.15	1175.8
1278.5	1171.9
1283.83	1173.4
1289.17	1174
1294.5	1176.6
1299.83	1176.5
1305.15	1171.9
1310.47	1174.7
1315.79	1179.3
1321.11	1177
1326.42	1178.7
1331.73	1179.2
1337.03	1184.5
1342.33	1186.7
1347.63	1179.4
1352.92	1182.5
1358.22	1183.8
1363.5	1173.4
1368.79	1176.3
1374.07	1180.1
1379.35	1177.8
1384.62	1176
1389.9	1175.6
1395.16	1173.4
1400.43	1176.4
1405.69	1169.8
1410.95	1173.1
1416.21	1177.7
1421.46	1175.8
1426.71	1177.7
1431.95	1176.9
1437.19	1173.1
1442.43	1178.1
1447.67	1175.8
1452.9	1175.2
1458.13	1177.1
1463.36	1172.7
1468.58	1176.7
1473.8	1175.2
1479.02	1178.7
1484.23	1173.3
1489.44	1173
1494.65	1174.9
1499.85	1174.5
1505.05	1172.2
1510.25	1174.7
1515.44	1181.2
1520.63	1179.9
1525.82	1178.7
1531	1184.4
1536.18	1183.6
1541.36	1184.1
1546.54	1183.6
1551.71	1189.8
1556.87	1193.4
1562.04	1210.1
1567.2	1233.8
1572.36	1292.2
1577.52	1419.1
1582.67	1590.9
1587.82	1561.7
1592.96	1386.7
1598.11	1276.9
1603.24	1223.8
1608.38	1203.7
1613.51	1198.2
1618.64	1189.9
1623.77	1187.4
1628.89	1185.3
1634.01	1180
1639.13	1179.3
1644.25	1172.1
1649.36	1174.1
1654.47	1170.2
1659.57	1170.1
1664.67	1170.2
1669.77	1170.5
1674.87	1167.8
1679.96	1169.7
1685.05	1169.7
1690.13	1172.2
1695.22	1170.4
1700.3	1166.7
1705.37	1168.6
1710.45	1170.8
1715.52	1171.5
1720.58	1169.7
1725.65	1167.3
1730.71	1168.1
1735.77	1164.8
1740.82	1163
1745.87	1166.7
1750.92	1164.1
1755.97	1166.8
1761.01	1170.9
1766.05	1169.3
1771.09	1167.5
1776.12	1166.7
1781.15	1170.4
1786.18	1166
1791.2	1169.3
1796.22	1168.4
1801.24	1165.9
1806.25	1167.7
1811.26	1165.4
1816.27	1163.5
1821.28	1166.9
1826.28	1168
1831.28	1169
1836.28	1168.7
1841.27	1170.4
1846.26	1173.8
1851.25	1176.5
1856.23	1172
1861.21	1170.2
1866.19	1170.1
1871.17	1169.2
1876.14	1172.7
1881.11	1170.5
1886.07	1166.7
1891.04	1167.4
1896	1171
1900.95	1167.4
1905.91	1168.9
1910.86	1169.4
1915.81	1168.8
1920.75	1169
1925.69	1169.1
1930.63	1167.4
1935.57	1165.9
1940.5	1169.2
1945.43	1166.4
1950.36	1167.1
1955.28	1164.9
1960.2	1170.8
1965.12	1167.1
1970.04	1166.5
1974.95	1167.3
1979.86	1171.8
1984.76	1167.7
1989.67	1170.2
1994.57	1170.3
1999.47	1166.9
2004.36	1170.3
2009.25	1170
2014.14	1168.5
2019.02	1171.5
2023.91	1169.9
2028.79	1166.5
2033.66	1167.5
2038.54	1167.8
2043.41	1169.6
2048.27	1171.7
2053.14	1163.9
2058	1165.9
2062.86	1169.9
2067.72	1167.1
2072.57	1168.5
2077.42	1169.3
2082.27	1169.7
2087.11	1166.7
2091.95	1162.3
2096.79	1165.7
2101.63	1167.8
2106.46	1164.1
2111.29	1166.2
2116.11	1168.7
2120.94	1163.8
2125.76	1164.5
2130.58	1165
2135.39	1166.1
2140.21	1164.9
2145.01	1164.9
2149.82	1165.6
2154.62	1171.2
2159.43	1167.2
2164.22	1166.1
2169.02	1168.6
2173.81	1167.6
2178.6	1167
2183.39	1169.1
2188.17	1170.1
2192.95	1169.1
2197.73	1166.6
2202.5	1167
2207.28	1167.9
2212.04	1168.9
2216.81	1169.6
2221.57	1170.9
2226.33	1171.6
2231.09	1167.9
2235.85	1167.6
2240.6	1167.1
2245.35	1170.1
2250.1	1171.1
2254.84	1167.3
2259.58	1169
2264.32	1163.7
2269.05	1167.4
2273.79	1167.4
2278.52	1166.2
2283.24	1167
2287.97	1168.1
2292.69	1163
2297.4	1168.8
2302.12	1166.2
2306.83	1166.4
2311.54	1168.3
2316.25	1168
2320.95	1168.3
2325.66	1166.3
2330.35	1169.1
2335.05	1167.3
2339.74	1167.8
2344.43	1170.1
2349.12	1168.4
2353.81	1170
2358.49	1172.2
2363.17	1167.5
2367.84	1168
2372.52	1169.6
2377.19	1169.2
2381.86	1172.9
2386.52	1168.1
2391.18	1170.3
2395.84	1171.6
2400.5	1171.3
2405.15	1169.6
2409.81	1172.9
2414.45	1172.1
2419.1	1174.9
2423.74	1172.2
2428.38	1176.3
2433.02	1178.8
2437.66	1183
2442.29	1193.8
2446.92	1202
2451.55	1211.9
2456.17	1213.1
2460.79	1208.1
2465.41	1201.2
2470.03	1195.9
2474.64	1188.5
2479.25	1186.8
2483.86	1192.8
2488.46	1188
2493.07	1182.2
2497.67	1181.2
2502.26	1178.4
2506.86	1175.9
2511.45	1177.8
2516.04	1177.8
2520.62	1178.9
2525.21	1178.4
2529.79	1175.8
2534.37	1174.7
2538.94	1172.8
2543.51	1177.2
2548.08	1175.7
2552.65	1175.5
2557.22	1177.1
2561.78	1177.7
2566.34	1179.8
2570.89	1176.5
2575.45	1179.3
2580	1177.8
2584.55	1174.1
2589.1	1182
2593.64	1182.7
2598.18	1184.3
2602.72	1185
2607.25	1183.6
2611.79	1185.9
2616.32	1196.4
2620.84	1196.9
2625.37	1208.7
2629.89	1215.3
2634.41	1233.6
2638.93	1256.9
2643.44	1290.1
2647.95	1354.6
2652.46	1436.8
2656.97	1567.6
2661.47	1731.2
2665.97	1880.8
2670.47	2009.2
2674.97	2073.5
2679.46	2048.7
2683.95	1920.4
2688.44	1753.3
2692.93	1613.6
2697.41	1472.9
2701.89	1397.9
2706.37	1333.3
2710.84	1279.8
2715.32	1260.1
2719.79	1235.5
2724.25	1214.5
2728.72	1209.5
2733.18	1200.4
2737.64	1199.5
2742.1	1196.4
2746.55	1186.6
2751	1187.3
2755.45	1183.5
2759.9	1178.4
2764.34	1180.9
2768.79	1175.5
2773.22	1178
2777.66	1178.9
2782.1	1169.5
2786.53	1172.4
2790.96	1173.2
2795.38	1175.6
2799.81	1173.4
2804.23	1174
2808.65	1174.5
2813.06	1171.1
2817.48	1172.2
2821.89	1169.3
2826.3	1168.7
2830.7	1171.5
2835.1	1170.6
2839.51	1172.5
2843.9	1170.5
2848.3	1166.8
2852.69	1172.4
2857.08	1166.6
2861.47	1170.5
2865.86	1169.2
2870.24	1170.9
2874.62	1168
2879	1168.3
2883.38	1172.8
2887.75	1170.1
2892.12	1170.4
2896.49	1168.1
2900.85	1167.9
2905.22	1169.5
2909.58	1170.1
2913.94	1168.5
2918.29	1174.4
2922.65	1166.1
2927	1168.1
2931.35	1170
2935.69	1167.9
2940.03	1167.1
2944.38	1166.4
2948.71	1167.7
2953.05	1165.6
2957.38	1168.2
2961.71	1164
2966.04	1167.7
2970.37	1164.6
2974.69	1169.4
2979.01	1165.2
2983.33	1163.5
2987.65	1164.8
2991.96	1163.7
2996.27	1163.7
3000.58	1164.4
3004.89	1165
3009.19	1166.1
3013.5	1167.4
3017.79	1163
3022.09	1162.3
3026.39	1162.7
3030.68	1163.8
3034.97	1162.2
3039.25	1163.2
3043.54	1165.6
3047.82	1164.6
3052.1	1163.7
3056.38	1163
3060.65	1162
3064.93	1161
3069.2	1165.6
3073.46	1162.6
3077.73	1161.4
3081.99	1161.3
3086.25	1163.6
3090.51	1163.7
3094.77	1166.5
3099.02	1162
3103.27	1165.9
3107.52	1158.6
3111.77	1162.4
3116.01	1161.2
3120.25	1164.1
3124.49	1161.4
3128.73	1160.6
3132.96	1161
3137.19	1164.9
3141.42	1157.7
3145.65	1165.2
3149.87	1162.6
3154.1	1163.8
3158.32	1161
3162.53	1163.5
3166.75	1164.8
3170.96	1164.9
3175.17	1163
3179.38	1162.8
3183.59	1161.1
3187.79	1160
3191.99	1163.9
3196.19	1159.8
3200.39	1160.2
3204.58	1162.4
3208.77	1165.4
3212.96	1162.8
3217.15	1165.1
3221.33	1165.7
3225.52	1163.6
3229.7	1173.9
3233.87	1176.7
3238.05	1197.4
3242.22	1204.2
3246.39	1206.3
3250.56	1185.3
3254.73	1174.7
3258.89	1165.2
3263.05	1163.6
3267.21	1164.4
3271.37	1163.5
3275.52	1161.1
3279.68	1159.9
3283.83	1159.7
3287.97	1157.5
3292.12	1161.6
3296.26	1162.1
3300.4	1163
3304.54	1160.8
3308.68	1158.9
3312.81	1160
3316.94	1158.5
3321.07	1159.6
3325.2	1158.4
3329.33	1159.8
3333.45	1161.7
3337.57	1159.7
3341.69	1161.9
3345.8	1160.4
3349.92	1157.5
3354.03	1159.8
3358.14	1158.4
3362.24	1160.3
3366.35	1159.8
3370.45	1160.2
3374.55	1156.5
3378.65	1164
3382.74	1159.9
3386.83	1158.2
3390.93	1162.2
3395.01	1157.2
3399.1	1160.8
3403.18	1162.3
3407.27	1161.2
3411.35	1156.8
3415.42	1161
3419.5	1159.6
3423.57	1158.9
3427.64	1158.9
3431.71	1158.5
3435.78	1157.1
3439.84	1158.3
3443.9	1160
3447.96	1158.9
3452.02	1157.5
3456.07	1160.1
3460.13	1158.4
3464.18	1157.2
3468.23	1160
3472.27	1158.6
3476.32	1156.8
3480.36	1159.5
3484.4	1158.1
3488.44	1159.5
3492.47	1158.3
3496.5	1156.8
3500.54	1156.3
3504.56	1153.3
3508.59	1158.6
3512.62	1158
3516.64	1157.4
3520.66	1158.2
3524.67	1157
3528.69	1157.4
3532.7	1157.1
3536.72	1158.3
3540.72	1158.4
3544.73	1158.9
3548.74	1158.6
3552.74	1157.5
3556.74	1154.3
3560.74	1157.2
3564.73	1157.8
3568.73	1159.6
3572.72	1156.2
3576.71	1153.9
3580.7	1157.5
3584.68	1157.5
3588.66	1155.1
3592.64	1155.8
3596.62	1155.9
3600.6	1154.6
3604.57	1157.7
3608.55	1154.8
3612.52	1158
3616.48	1157.9
3620.45	1157.5
3624.41	1156.2
3628.38	1155.9
3632.34	1153.5
3636.29	1155
3640.25	1157.4
3644.2	1155.8
3648.15	1154.1
3652.1	1156.5
3656.05	1155.9
3659.99	1152.9
3663.94	1154.7
3667.88	1156.8
3671.81	1156.5
3675.75	1154.5
3679.68	1156.3
3683.62	1157.1
3687.55	1157.1
3691.47	1157
3695.4	1156.2
3699.32	1156.9
3703.24	1156.2
3707.16	1157
3711.08	1153.3
3715	1153.6
3718.91	1156.2
3722.82	1156.2
3726.73	1154.3
3730.64	1152.3
3734.54	1154.1
3738.44	1154.3
3742.34	1152.4
3746.24	1152.3
3750.14	1155.6
3754.03	1156.3
3757.92	1152
3761.81	1156.2
3765.7	1151.4
3769.59	1155
3773.47	1153.8
3775.41	1153.2