File: Muestras y catálogo/Older versions/Raman_v1.0/Muestras_12-11-24/Data/Muestra 2_100x_zona2_rosa.txt
-174.488	1146.8
-168.221	1148.6
-161.957	1149.3
-155.697	1147.3
-149.442	1146.1
-143.191	1148.5
-136.943	1146.3
-130.7	1148.1
-124.461	1148.3
-118.226	1148.6
-111.995	1147.1
-105.768	1149.6
-99.5451	1148.3
-93.3263	1149
-87.1116	1148.5
-80.9009	1147.9
-74.6943	1147.3
-68.4917	1147.3
-62.2932	1147.3
-56.0987	1147.9
-49.9082	1148.3
-43.7218	1148.8
-37.5394	1147.3
-31.361	1148.3
-25.1866	1147.9
-19.0163	1148.3
-12.85	1147.3
-6.6877	1148.6
-0.529406	1152.8
5.62488	1153.5
11.7752	1148.6
17.9214	1147.9
24.0637	1149.3
30.202	1147.1
36.3363	1148.4
42.4666	1149
48.593	1147
54.7153	1147.4
60.8337	1148.4
66.9481	1148.2
73.0585	1150.9
79.165	1182.5
85.2675	1321.1
91.366	1401.7
97.4606	1421.3
103.551	1413.3
109.638	1406.7
115.721	1393.4
121.799	1395.7
127.874	1374.2
133.945	1362.6
140.012	1359
146.075	1354.7
152.134	1339
158.189	1347
164.241	1340.6
170.288	1331
176.332	1320.8
182.371	1333.9
188.407	1324.9
194.438	1321.4
200.466	1318.8
206.49	1319
212.51	1324.1
218.526	1337.4
224.538	1339.2
230.547	1370.2
236.551	1366.5
242.552	1373
248.548	1376.1
254.541	1374.7
260.53	1386.1
266.515	1382
272.497	1400.5
278.474	1403.1
284.447	1417.8
290.417	1423.6
296.383	1456.9
302.345	1507.6
308.303	1458.8
314.257	1431.1
320.208	1399
326.154	1380.2
332.097	1380.2
338.036	1366.3
343.971	1345.1
349.902	1351
355.83	1340.6
361.753	1338.6
367.673	1327.4
373.589	1318.8
379.501	1325.3
385.41	1314.3
391.314	1314.4
397.215	1304.2
403.112	1296.4
409.005	1304.8
414.895	1298.1
420.78	1307.5
426.662	1307.3
432.54	1315.7
438.414	1300.8
444.285	1285.6
450.152	1269.6
456.015	1257.5
461.874	1252.5
467.729	1259.7
473.581	1265.6
479.429	1282.3
485.273	1297.5
491.113	1335.6
496.95	1379.2
502.783	1506.2
508.612	1949.6
514.438	5230.7
520.259	13718.4
526.077	5486.7
531.892	2459.6
537.702	1745.7
543.509	1511.4
549.312	1397.1
555.112	1344.8
560.907	1303
566.699	1292.1
572.487	1261.3
578.272	1262.2
584.053	1255
589.83	1255.4
595.603	1260.2
601.373	1257.7
607.139	1261.8
612.902	1273.6
618.66	1284.5
624.415	1280.6
630.167	1255.9
635.914	1264.6
641.658	1255.1
647.399	1253.2
653.135	1252.9
658.869	1263
664.598	1265.6
670.324	1260.5
676.046	1255
681.764	1252.6
687.479	1243.1
693.19	1233.1
698.897	1234.6
704.601	1220.6
710.301	1226.2
715.998	1220.8
721.691	1213.9
727.38	1216.3
733.066	1222.7
738.748	1216.4
744.426	1216.9
750.101	1218.5
755.772	1219.2
761.44	1227.6
767.104	1221.3
772.764	1222.7
778.421	1223
784.074	1233.4
789.724	1223.1
795.37	1233.2
801.012	1232.4
806.651	1240.8
812.286	1246.5
817.918	1243.2
823.546	1251.9
829.171	1250.5
834.792	1242.9
840.409	1240.9
846.023	1239.6
851.633	1237.8
857.24	1237.8
862.843	1244.2
868.443	1239.2
874.039	1245.1
879.631	1246.8
885.22	1240.2
890.806	1241.7
896.387	1246
901.966	1244.4
907.541	1252.2
913.112	1251.7
918.68	1257
924.244	1292.4
929.805	1387.8
935.362	1520.7
940.915	1641.3
946.466	1622.8
952.012	1635.8
957.555	1634.4
963.095	1635.7
968.631	1653.6
974.164	1670.2
979.693	1648.9
985.219	1594.4
990.741	1488.6
996.259	1393.3
1001.77	1348.2
1007.29	1306.6
1012.79	1282.3
1018.3	1262.3
1023.8	1248.2
1029.3	1236.1
1034.79	1211.7
1040.28	1197.3
1045.77	1192.1
1051.26	1188.2
1056.74	1183.1
1062.21	1189
1067.69	1183.1
1073.16	1189.2
1078.62	1182.6
1084.09	1184
1089.55	1181.2
1095	1186.1
1100.46	1179.7
1105.91	1184.2
1111.35	1181.2
1116.79	1187.4
1122.23	1180.2
1127.67	1181
1133.1	1179.3
1138.53	1177.6
1143.96	1180.7
1149.38	1177.9
1154.8	1177.9
1160.21	1176.5
1165.62	1181.3
1171.03	1175.2
1176.44	1174.9
1181.84	1177.6
1187.24	1174.7
1192.63	1177.8
1198.03	1175.1
1203.41	1171
1208.8	1175.1
1214.18	1174.4
1219.56	1173.8
1224.93	1172.1
1230.3	1179.1
1235.67	1176.1
1241.04	1172.2
1246.4	1175.2
1251.76	1174.3
1257.11	1176.6
1262.46	1179.2
1267.81	1174.1
1273.15	1176.2
1278.5	1174.7
1283.83	1178.9
1289.17	1175.8
1294.5	1175.3
1299.83	1173.1
1305.15	1173.8
1310.47	1177.8
1315.79	1178.6
1321.11	1177
1326.42	1171.6
1331.73	1176.7
1337.03	1179.8
1342.33	1181.8
1347.63	1175.1
1352.92	1178.2
1358.22	1173.2
1363.5	1174
1368.79	1174.2
1374.07	1174.7
1379.35	1173.3
1384.62	1174.3
1389.9	1176.7
1395.16	1174
1400.43	1172.2
1405.69	1172
1410.95	1170.6
1416.21	1180.2
1421.46	1175
1426.71	1177.2
1431.95	1175.5
1437.19	1173.4
1442.43	1177
1447.67	1175.9
1452.9	1174
1458.13	1178.7
1463.36	1172.4
1468.58	1173.2
1473.8	1170.8
1479.02	1174.4
1484.23	1169.1
1489.44	1170.6
1494.65	1173.5
1499.85	1174.2
1505.05	1177.4
1510.25	1169.8
1515.44	1169.1
1520.63	1167.4
1525.82	1172.6
1531	1168.8
1536.18	1169.7
1541.36	1168
1546.54	1166.9
1551.71	1171
1556.87	1168.9
1562.04	1168.1
1567.2	1171.8
1572.36	1169.9
1577.52	1169.1
1582.67	1168.3
1587.82	1167
1592.96	1168.5
1598.11	1174.8
1603.24	1167.6
1608.38	1171.5
1613.51	1168.6
1618.64	1169.1
1623.77	1169.8
1628.89	1167
1634.01	1168.1
1639.13	1170.8
1644.25	1170.4
1649.36	1171.9
1654.47	1170.1
1659.57	1168.1
1664.67	1168.8
1669.77	1171.3
1674.87	1170.2
1679.96	1168.8
1685.05	1168.5
1690.13	1168.4
1695.22	1171.6
1700.3	1169.5
1705.37	1169
1710.45	1168.8
1715.52	1168.5
1720.58	1164.7
1725.65	1166.6
1730.71	1168.8
1735.77	1165.1
1740.82	1168
1745.87	1167.5
1750.92	1168.2
1755.97	1167.5
1761.01	1168.6
1766.05	1169
1771.09	1170.7
1776.12	1169.2
1781.15	1168.2
1786.18	1169.6
1791.2	1166.4
1796.22	1165.4
1801.24	1167.5
1806.25	1168.3
1811.26	1164.2
1816.27	1167.7
1821.28	1169
1826.28	1169.4
1831.28	1167.9
1836.28	1168.9
1841.27	1166.3
1846.26	1169.2
1851.25	1166.1
1856.23	1169.9
1861.21	1168.4
1866.19	1166.1
1871.17	1167
1876.14	1163.9
1881.11	1167.9
1886.07	1168.6
1891.04	1168
1896	1164.4
1900.95	1165.3
1905.91	1166.6
1910.86	1166.6
1915.81	1172.7
1920.75	1166.8
1925.69	1166.4
1930.63	1170.3
1935.57	1164.8
1940.5	1166.9
1945.43	1167.9
1950.36	1164.8
1955.28	1167.2
1960.2	1164.8
1965.12	1165
1970.04	1166.1
1974.95	1166.6
1979.86	1166.7
1984.76	1165.8
1989.67	1165.3
1994.57	1166.5
1999.47	1167.7
2004.36	1168.4
2009.25	1167.9
2014.14	1169.7
2019.02	1166.8
2023.91	1167.4
2028.79	1166.8
2033.66	1164.5
2038.54	1160.9
2043.41	1163.9
2048.27	1166
2053.14	1164.3
2058	1163.3
2062.86	1166.3
2067.72	1168.1
2072.57	1164.6
2077.42	1165.1
2082.27	1166.9
2087.11	1165.5
2091.95	1166.2
2096.79	1163.1
2101.63	1165.1
2106.46	1164.3
2111.29	1166
2116.11	1171.5
2120.94	1164.3
2125.76	1169.2
2130.58	1171.8
2135.39	1162.7
2140.21	1170.2
2145.01	1165.4
2149.82	1163.8
2154.62	1167.3
2159.43	1169.4
2164.22	1169
2169.02	1170.4
2173.81	1166.2
2178.6	1165.1
2183.39	1168
2188.17	1163.3
2192.95	1163.1
2197.73	1164.9
2202.5	1165.3
2207.28	1164.8
2212.04	1167.7
2216.81	1167
2221.57	1169.3
2226.33	1166.6
2231.09	1162.6
2235.85	1163.7
2240.6	1165.6
2245.35	1167.8
2250.1	1168.2
2254.84	1165.5
2259.58	1166.2
2264.32	1163
2269.05	1167
2273.79	1168.6
2278.52	1165
2283.24	1162.9
2287.97	1168.7
2292.69	1165
2297.4	1167.9
2302.12	1161.1
2306.83	1167.6
2311.54	1168.7
2316.25	1164.7
2320.95	1163.3
2325.66	1164.2
2330.35	1166.9
2335.05	1166
2339.74	1167.4
2344.43	1165.4
2349.12	1163.8
2353.81	1165.1
2358.49	1166.1
2363.17	1165.2
2367.84	1164.5
2372.52	1162.1
2377.19	1167.3
2381.86	1168.6
2386.52	1163.2
2391.18	1167.9
2395.84	1165.5
2400.5	1168.8
2405.15	1166.1
2409.81	1164.8
2414.45	1162
2419.1	1166.3
2423.74	1168.5
2428.38	1164.4
2433.02	1170
2437.66	1164.4
2442.29	1164.3
2446.92	1163.6
2451.55	1166.8
2456.17	1165.6
2460.79	1162.8
2465.41	1166.1
2470.03	1168.3
2474.64	1166.8
2479.25	1163.3
2483.86	1163.5
2488.46	1164.3
2493.07	1165.1
2497.67	1166.1
2502.26	1166.9
2506.86	1163.8
2511.45	1164.6
2516.04	1167.9
2520.62	1165.7
2525.21	1161.2
2529.79	1164.3
2534.37	1169.3
2538.94	1166
2543.51	1164.5
2548.08	1167
2552.65	1160.9
2557.22	1168.1
2561.78	1165.3
2566.34	1165.1
2570.89	1166.4
2575.45	1166
2580	1168
2584.55	1167.7
2589.1	1165.6
2593.64	1167.8
2598.18	1165.4
2602.72	1166.3
2607.25	1167.8
2611.79	1166.3
2616.32	1166.8
2620.84	1168.7
2625.37	1162.9
2629.89	1163.6
2634.41	1162
2638.93	1164.4
2643.44	1160.7
2647.95	1164.4
2652.46	1165.9
2656.97	1163
2661.47	1162.7
2665.97	1164.5
2670.47	1162.7
2674.97	1166.3
2679.46	1164.2
2683.95	1161.9
2688.44	1166.7
2692.93	1165.9
2697.41	1165.9
2701.89	1161.2
2706.37	1166
2710.84	1166.6
2715.32	1163.7
2719.79	1165.6
2724.25	1162.6
2728.72	1162.9
2733.18	1164.7
2737.64	1162.9
2742.1	1163.3
2746.55	1166.3
2751	1165.7
2755.45	1162.9
2759.9	1162.2
2764.34	1161.7
2768.79	1164.7
2773.22	1162.8
2777.66	1160.8
2782.1	1162.9
2786.53	1165.8
2790.96	1164.2
2795.38	1163.8
2799.81	1165.8
2804.23	1161.9
2808.65	1160.2
2813.06	1165.1
2817.48	1160.5
2821.89	1160.3
2826.3	1163.3
2830.7	1163
2835.1	1159.4
2839.51	1162.7
2843.9	1166.3
2848.3	1161
2852.69	1165.7
2857.08	1164.7
2861.47	1164.2
2865.86	1162.5
2870.24	1164.7
2874.62	1164.1
2879	1164.2
2883.38	1160.1
2887.75	1159.6
2892.12	1161.8
2896.49	1162.9
2900.85	1163.7
2905.22	1161.7
2909.58	1163.8
2913.94	1163.2
2918.29	1164.3
2922.65	1162.8
2927	1160.2
2931.35	1162.4
2935.69	1162.6
2940.03	1163.4
2944.38	1163.2
2948.71	1166
2953.05	1162.3
2957.38	1167
2961.71	1163.5
2966.04	1162.2
2970.37	1160.8
2974.69	1160
2979.01	1158.2
2983.33	1159.8
2987.65	1164.3
2991.96	1161.8
2996.27	1164.3
3000.58	1161.1
3004.89	1162.9
3009.19	1162.5
3013.5	1161.9
3017.79	1161.8
3022.09	1162.6
3026.39	1165.7
3030.68	1163
3034.97	1161.4
3039.25	1162.6
3043.54	1163.2
3047.82	1163.2
3052.1	1162.9
3056.38	1161
3060.65	1164.1
3064.93	1159.3
3069.2	1163
3073.46	1159.8
3077.73	1161.7
3081.99	1160
3086.25	1160
3090.51	1161.6
3094.77	1161.3
3099.02	1160.5
3103.27	1160.6
3107.52	1162.4
3111.77	1162.7
3116.01	1158
3120.25	1158.3
3124.49	1161.9
3128.73	1158.1
3132.96	1158.1
3137.19	1161.3
3141.42	1160.2
3145.65	1158.9
3149.87	1162
3154.1	1161.6
3158.32	1159.8
3162.53	1161.8
3166.75	1162.9
3170.96	1161.7
3175.17	1160
3179.38	1162.4
3183.59	1160.6
3187.79	1163.9
3191.99	1160.7
3196.19	1161
3200.39	1159.2
3204.58	1158.8
3208.77	1158.9
3212.96	1162
3217.15	1162.5
3221.33	1158.5
3225.52	1164.3
3229.7	1159.7
3233.87	1162.5
3238.05	1158.3
3242.22	1156.3
3246.39	1160.9
3250.56	1159.1
3254.73	1158.4
3258.89	1159.7
3263.05	1156.2
3267.21	1158
3271.37	1163.6
3275.52	1159.9
3279.68	1159.9
3283.83	1160.2
3287.97	1163
3292.12	1158.5
3296.26	1157.1
3300.4	1161.6
3304.54	1161.8
3308.68	1156.7
3312.81	1159.6
3316.94	1160.7
3321.07	1158.8
3325.2	1159.8
3329.33	1156
3333.45	1161.3
3337.57	1158.6
3341.69	1158.1
3345.8	1156.1
3349.92	1159.3
3354.03	1158.5
3358.14	1158.3
3362.24	1155.8
3366.35	1158.1
3370.45	1158.9
3374.55	1159.4
3378.65	1156.5
3382.74	1157.5
3386.83	1160.8
3390.93	1160.5
3395.01	1160.2
3399.1	1157.9
3403.18	1155.7
3407.27	1157.5
3411.35	1155.8
3415.42	1158.8
3419.5	1156.9
3423.57	1155.4
3427.64	1156.3
3431.71	1157.3
3435.78	1156.8
3439.84	1158.4
3443.9	1155.2
3447.96	1159.2
3452.02	1157.7
3456.07	1157.3
3460.13	1154.5
3464.18	1154.3
3468.23	1156.7
3472.27	1155.7
3476.32	1155.2
3480.36	1157.1
3484.4	1158.5
3488.44	1154.5
3492.47	1156.7
3496.5	1155.2
3500.54	1157.4
3504.56	1154.6
3508.59	1159.4
3512.62	1158.6
3516.64	1157.4
3520.66	1155.1
3524.67	1160.5
3528.69	1155.6
3532.7	1157.2
3536.72	1154.7
3540.72	1156.5
3544.73	1155.4
3548.74	1154.3
3552.74	1156.2
3556.74	1156.4
3560.74	1156.1
3564.73	1157.8
3568.73	1154
3572.72	1158.8
3576.71	1154.9
3580.7	1155.6
3584.68	1156.4
3588.66	1156.6
3592.64	1155.3
3596.62	1157.8
3600.6	1155.4
3604.57	1154.4
3608.55	1157
3612.52	1156.5
3616.48	1154
3620.45	1154.9
3624.41	1154
3628.38	1154.8
3632.34	1154.7
3636.29	1154.2
3640.25	1153
3644.2	1156.3
3648.15	1155.8
3652.1	1155
3656.05	1155.2
3659.99	1152.7
3663.94	1155.9
3667.88	1153.1
3671.81	1155
3675.75	1152
3679.68	1154.7
3683.62	1152.2
3687.55	1156.4
3691.47	1155.4
3695.4	1156.8
3699.32	1156.8
3703.24	1155.8
3707.16	1152.8
3711.08	1153.1
3715	1154.2
3718.91	1156.6
3722.82	1153.8
3726.73	1154.7
3730.64	1154.9
3734.54	1154.6
3738.44	1152.3
3742.34	1154.4
3746.24	1156
3750.14	1151.4
3754.03	1152.2
3757.92	1153.2
3761.81	1150.6
3765.7	1151.2
3769.59	1156.1
3773.47	1153.5
3775.41	1149.3