File: Muestras y catálogo/Older versions/Raman_v1.0/Muestras_12-11-24/Data/Muestra 2_100x_zona1_rosa.txt
-174.488	1147.7
-168.221	1148.9
-161.957	1149.9
-155.697	1145.9
-149.442	1149.3
-143.191	1148
-136.943	1147.9
-130.7	1148.4
-124.461	1148
-118.226	1146.8
-111.995	1147.2
-105.768	1147.7
-99.5451	1146
-93.3263	1148.8
-87.1116	1146.4
-80.9009	1149.1
-74.6943	1147.1
-68.4917	1147.9
-62.2932	1150.1
-56.0987	1145.9
-49.9082	1150.1
-43.7218	1148.5
-37.5394	1149.9
-31.361	1147.5
-25.1866	1147.4
-19.0163	1148.1
-12.85	1148
-6.6877	1147.3
-0.529406	1157.4
5.62488	1159.3
11.7752	1148.2
17.9214	1146.7
24.0637	1148
30.202	1149.4
36.3363	1145.5
42.4666	1146
48.593	1148.4
54.7153	1148.7
60.8337	1148
66.9481	1149.9
73.0585	1152.4
79.165	1178.3
85.2675	1322.8
91.366	1395.4
97.4606	1412.5
103.551	1409.8
109.638	1409.9
115.721	1406
121.799	1392.3
127.874	1371.1
133.945	1363.3
140.012	1367.1
146.075	1351.1
152.134	1346.9
158.189	1342.2
164.241	1338.1
170.288	1333.7
176.332	1330.2
182.371	1326.3
188.407	1319.4
194.438	1318.8
200.466	1322.9
206.49	1320.7
212.51	1327.3
218.526	1328.7
224.538	1341.2
230.547	1357.4
236.551	1377.3
242.552	1371.2
248.548	1372.9
254.541	1385.7
260.53	1386.1
266.515	1383.6
272.497	1393.9
278.474	1400.6
284.447	1416.3
290.417	1435.8
296.383	1466.5
302.345	1509.1
308.303	1478
314.257	1435.6
320.208	1403.6
326.154	1386.2
332.097	1380.2
338.036	1372.3
343.971	1357.1
349.902	1340.6
355.83	1351.7
361.753	1336.3
367.673	1330.3
373.589	1322.8
379.501	1314.3
385.41	1324.6
391.314	1304.5
397.215	1304.7
403.112	1306
409.005	1306
414.895	1296.8
420.78	1296.5
426.662	1313.7
432.54	1307.1
438.414	1303.5
444.285	1276.4
450.152	1274.3
456.015	1254
461.874	1246.1
467.729	1248.4
473.581	1267.5
479.429	1276.7
485.273	1304.5
491.113	1337.9
496.95	1391.4
502.783	1531.7
508.612	1976.4
514.438	5371.8
520.259	14166.4
526.077	5634.4
531.892	2513.3
537.702	1779.4
543.509	1520.8
549.312	1399.2
555.112	1339.5
560.907	1315.2
566.699	1288.3
572.487	1270.2
578.272	1267.8
584.053	1255.3
589.83	1253.9
595.603	1259.3
601.373	1257.5
607.139	1261
612.902	1270.6
618.66	1283
624.415	1271.5
630.167	1261
635.914	1253.4
641.658	1255.2
647.399	1258.9
653.135	1256.7
658.869	1258.2
664.598	1262.7
670.324	1266.5
676.046	1262.3
681.764	1245.1
687.479	1248.9
693.19	1230.5
698.897	1224.5
704.601	1226.8
710.301	1221.2
715.998	1216.2
721.691	1210.4
727.38	1216.7
733.066	1217.5
738.748	1223.5
744.426	1216.4
750.101	1210.7
755.772	1226.4
761.44	1222.7
767.104	1219
772.764	1225
778.421	1232.7
784.074	1228.8
789.724	1231.6
795.37	1236.6
801.012	1236.2
806.651	1233
812.286	1248.5
817.918	1247.7
823.546	1253.8
829.171	1250.7
834.792	1237.3
840.409	1234.4
846.023	1246.2
851.633	1239.4
857.24	1241.8
862.843	1238.3
868.443	1239.3
874.039	1242.9
879.631	1246.1
885.22	1239.9
890.806	1252.2
896.387	1242.2
901.966	1242.9
907.541	1257.6
913.112	1253.5
918.68	1270.5
924.244	1298.3
929.805	1401.4
935.362	1541.5
940.915	1649.7
946.466	1637.2
952.012	1645.6
957.555	1647.6
963.095	1674.8
968.631	1682.8
974.164	1679.4
979.693	1685.2
985.219	1618.3
990.741	1499.5
996.259	1399.5
1001.77	1342.9
1007.29	1318.5
1012.79	1293.4
1018.3	1272.6
1023.8	1255.4
1029.3	1229.9
1034.79	1211.1
1040.28	1197.6
1045.77	1189.4
1051.26	1188
1056.74	1182.7
1062.21	1186.9
1067.69	1180.7
1073.16	1183.9
1078.62	1181.7
1084.09	1187
1089.55	1181.3
1095	1182.3
1100.46	1187
1105.91	1179
1111.35	1180.1
1116.79	1179.8
1122.23	1179.1
1127.67	1184.4
1133.1	1179.3
1138.53	1181.4
1143.96	1178
1149.38	1178.5
1154.8	1177.2
1160.21	1175.3
1165.62	1177.5
1171.03	1175.2
1176.44	1178.2
1181.84	1173.9
1187.24	1173.7
1192.63	1170.3
1198.03	1175.8
1203.41	1171.2
1208.8	1176.3
1214.18	1169.1
1219.56	1172.2
1224.93	1176.7
1230.3	1173.1
1235.67	1176.6
1241.04	1170.8
1246.4	1176.9
1251.76	1174.9
1257.11	1172.8
1262.46	1171.8
1267.81	1174.7
1273.15	1172.1
1278.5	1168.6
1283.83	1177.8
1289.17	1172.4
1294.5	1173.1
1299.83	1174.6
1305.15	1172.8
1310.47	1174
1315.79	1170.8
1321.11	1174.9
1326.42	1173.9
1331.73	1173.4
1337.03	1172.7
1342.33	1172.5
1347.63	1173
1352.92	1169.6
1358.22	1175.9
1363.5	1171.3
1368.79	1174.5
1374.07	1173.2
1379.35	1171.2
1384.62	1169.7
1389.9	1177.7
1395.16	1173.5
1400.43	1169.3
1405.69	1171.4
1410.95	1175.5
1416.21	1171.1
1421.46	1172
1426.71	1175
1431.95	1170
1437.19	1176.7
1442.43	1175.3
1447.67	1171.3
1452.9	1171.5
1458.13	1174.4
1463.36	1169.2
1468.58	1171.1
1473.8	1168.8
1479.02	1173.3
1484.23	1169.1
1489.44	1171.6
1494.65	1169.2
1499.85	1167.4
1505.05	1163.7
1510.25	1169.8
1515.44	1171.7
1520.63	1165.8
1525.82	1169.9
1531	1168.6
1536.18	1165.7
1541.36	1169.5
1546.54	1169.2
1551.71	1166.4
1556.87	1166.6
1562.04	1169.4
1567.2	1171.7
1572.36	1170.5
1577.52	1166.9
1582.67	1170.9
1587.82	1168.9
1592.96	1162.2
1598.11	1170.2
1603.24	1169.8
1608.38	1169.8
1613.51	1166
1618.64	1166.2
1623.77	1166.4
1628.89	1167.5
1634.01	1165.2
1639.13	1172.7
1644.25	1169
1649.36	1167.6
1654.47	1167.2
1659.57	1168.8
1664.67	1170.1
1669.77	1169.9
1674.87	1169.9
1679.96	1166.9
1685.05	1165.8
1690.13	1167.4
1695.22	1169.5
1700.3	1169.6
1705.37	1169
1710.45	1168
1715.52	1166.6
1720.58	1166.7
1725.65	1170.7
1730.71	1165.6
1735.77	1166.4
1740.82	1170.7
1745.87	1164.1
1750.92	1169.9
1755.97	1164.8
1761.01	1164.8
1766.05	1168.9
1771.09	1166.7
1776.12	1164.6
1781.15	1168.8
1786.18	1168.4
1791.2	1162.5
1796.22	1167.4
1801.24	1169.9
1806.25	1165.1
1811.26	1166.4
1816.27	1165.8
1821.28	1167.7
1826.28	1164.1
1831.28	1165.8
1836.28	1166.5
1841.27	1164.1
1846.26	1168.5
1851.25	1168
1856.23	1166.6
1861.21	1165
1866.19	1164.1
1871.17	1163.9
1876.14	1163.4
1881.11	1164.9
1886.07	1165.9
1891.04	1166.9
1896	1170
1900.95	1163.7
1905.91	1169.4
1910.86	1166.7
1915.81	1164
1920.75	1164.3
1925.69	1170.8
1930.63	1169
1935.57	1165
1940.5	1171.1
1945.43	1164.6
1950.36	1164.2
1955.28	1165.3
1960.2	1164.3
1965.12	1168.3
1970.04	1165
1974.95	1164.5
1979.86	1162.5
1984.76	1163.7
1989.67	1164.4
1994.57	1167.9
1999.47	1169.1
2004.36	1167.7
2009.25	1164.5
2014.14	1166.7
2019.02	1165.6
2023.91	1167.1
2028.79	1168.6
2033.66	1165.3
2038.54	1164.4
2043.41	1167.4
2048.27	1162.7
2053.14	1165.4
2058	1166.5
2062.86	1163.7
2067.72	1165.1
2072.57	1164.9
2077.42	1163
2082.27	1165.8
2087.11	1162
2091.95	1166.9
2096.79	1162
2101.63	1162.4
2106.46	1168.1
2111.29	1164.1
2116.11	1164.6
2120.94	1160.7
2125.76	1166.1
2130.58	1167.2
2135.39	1162.9
2140.21	1164.2
2145.01	1166.1
2149.82	1166.1
2154.62	1166.5
2159.43	1167.7
2164.22	1162.5
2169.02	1167.4
2173.81	1166.3
2178.6	1163.4
2183.39	1164.6
2188.17	1163.5
2192.95	1164.5
2197.73	1165.6
2202.5	1164.4
2207.28	1166.9
2212.04	1165.1
2216.81	1170.4
2221.57	1166.2
2226.33	1165.3
2231.09	1165.5
2235.85	1164.6
2240.6	1166.4
2245.35	1167
2250.1	1166.2
2254.84	1164.4
2259.58	1162.5
2264.32	1166.2
2269.05	1166.4
2273.79	1166.8
2278.52	1164.9
2283.24	1166.7
2287.97	1166.9
2292.69	1165.2
2297.4	1165.3
2302.12	1164.9
2306.83	1165.5
2311.54	1166.5
2316.25	1161.2
2320.95	1162.9
2325.66	1163.4
2330.35	1163.5
2335.05	1164.6
2339.74	1163.3
2344.43	1165.1
2349.12	1162.1
2353.81	1165.7
2358.49	1162.7
2363.17	1161.6
2367.84	1162.1
2372.52	1167
2377.19	1164.1
2381.86	1166.6
2386.52	1163.9
2391.18	1165.6
2395.84	1164.5
2400.5	1167.7
2405.15	1160.6
2409.81	1167.2
2414.45	1163.4
2419.1	1166.1
2423.74	1167.2
2428.38	1165.6
2433.02	1162
2437.66	1163.6
2442.29	1163.2
2446.92	1165.8
2451.55	1165.3
2456.17	1163.5
2460.79	1164.6
2465.41	1163.8
2470.03	1166.7
2474.64	1164.3
2479.25	1164.3
2483.86	1162.6
2488.46	1165.6
2493.07	1166.9
2497.67	1167.4
2502.26	1167.8
2506.86	1166.2
2511.45	1165.8
2516.04	1166
2520.62	1160.5
2525.21	1164.9
2529.79	1163.4
2534.37	1162.6
2538.94	1165.8
2543.51	1160
2548.08	1163.4
2552.65	1165.2
2557.22	1167.8
2561.78	1161.3
2566.34	1164.4
2570.89	1162.2
2575.45	1162.5
2580	1163
2584.55	1164
2589.1	1163
2593.64	1165.8
2598.18	1163.6
2602.72	1165.6
2607.25	1166.1
2611.79	1162.1
2616.32	1165.3
2620.84	1163.7
2625.37	1162.4
2629.89	1161.8
2634.41	1165.3
2638.93	1162
2643.44	1164.3
2647.95	1164.4
2652.46	1162
2656.97	1166.6
2661.47	1164.4
2665.97	1164.6
2670.47	1160.8
2674.97	1164.4
2679.46	1162.6
2683.95	1164.9
2688.44	1162.6
2692.93	1163
2697.41	1161.9
2701.89	1164.4
2706.37	1166.9
2710.84	1163.7
2715.32	1163.4
2719.79	1162.7
2724.25	1164.5
2728.72	1168.8
2733.18	1161.1
2737.64	1162.5
2742.1	1167.8
2746.55	1158
2751	1162.6
2755.45	1162.4
2759.9	1164.6
2764.34	1160.5
2768.79	1166.1
2773.22	1162.6
2777.66	1162.7
2782.1	1159
2786.53	1164.1
2790.96	1161.9
2795.38	1163.1
2799.81	1163.1
2804.23	1162.2
2808.65	1164
2813.06	1163.2
2817.48	1164.1
2821.89	1164.4
2826.3	1163.6
2830.7	1161
2835.1	1162.6
2839.51	1160.8
2843.9	1159
2848.3	1159.5
2852.69	1161.9
2857.08	1160.7
2861.47	1165.1
2865.86	1163.4
2870.24	1161.4
2874.62	1163.5
2879	1160.5
2883.38	1161.7
2887.75	1163.3
2892.12	1163.9
2896.49	1160.8
2900.85	1162.5
2905.22	1160.8
2909.58	1160.7
2913.94	1158.5
2918.29	1163.1
2922.65	1161.3
2927	1161.9
2931.35	1160.9
2935.69	1158.8
2940.03	1161
2944.38	1161.1
2948.71	1158.4
2953.05	1162.5
2957.38	1160.4
2961.71	1159.1
2966.04	1162.9
2970.37	1163.4
2974.69	1162
2979.01	1160
2983.33	1157
2987.65	1162.2
2991.96	1161.9
2996.27	1160.8
3000.58	1161.6
3004.89	1162.1
3009.19	1163.6
3013.5	1162.2
3017.79	1161
3022.09	1159.8
3026.39	1161.4
3030.68	1161.6
3034.97	1161.8
3039.25	1162.9
3043.54	1160.1
3047.82	1162.3
3052.1	1160
3056.38	1160.2
3060.65	1159.9
3064.93	1156.8
3069.2	1160.2
3073.46	1160.3
3077.73	1163.1
3081.99	1157.9
3086.25	1162.2
3090.51	1160
3094.77	1162.8
3099.02	1161.9
3103.27	1160.1
3107.52	1159.7
3111.77	1160.9
3116.01	1158.8
3120.25	1160.3
3124.49	1157.5
3128.73	1157.4
3132.96	1161.9
3137.19	1159.2
3141.42	1160.6
3145.65	1162.5
3149.87	1158.1
3154.1	1156.6
3158.32	1162
3162.53	1158.7
3166.75	1159.3
3170.96	1159.8
3175.17	1161.5
3179.38	1158.1
3183.59	1156.8
3187.79	1162.8
3191.99	1159.5
3196.19	1162.8
3200.39	1162.1
3204.58	1158.9
3208.77	1163
3212.96	1159.6
3217.15	1159.5
3221.33	1158.1
3225.52	1158.2
3229.7	1159.5
3233.87	1158.8
3238.05	1157.6
3242.22	1159
3246.39	1158
3250.56	1156.7
3254.73	1158.6
3258.89	1156.8
3263.05	1159.7
3267.21	1158.4
3271.37	1159.3
3275.52	1158.2
3279.68	1158.9
3283.83	1160.4
3287.97	1157
3292.12	1157.7
3296.26	1161.3
3300.4	1158.2
3304.54	1156.7
3308.68	1158.7
3312.81	1159.2
3316.94	1155
3321.07	1161.8
3325.2	1159.8
3329.33	1159.8
3333.45	1156
3337.57	1155.6
3341.69	1153.9
3345.8	1157.4
3349.92	1154
3354.03	1160.6
3358.14	1158.9
3362.24	1154.8
3366.35	1156.5
3370.45	1158.6
3374.55	1156.9
3378.65	1155.4
3382.74	1156.7
3386.83	1159.2
3390.93	1155.8
3395.01	1156.1
3399.1	1157.2
3403.18	1156.1
3407.27	1158.9
3411.35	1157
3415.42	1162.7
3419.5	1158.5
3423.57	1157.4
3427.64	1157.5
3431.71	1157.1
3435.78	1156.6
3439.84	1156.5
3443.9	1155.7
3447.96	1159.2
3452.02	1159.1
3456.07	1157.2
3460.13	1153.6
3464.18	1155.5
3468.23	1155.9
3472.27	1153.1
3476.32	1155.8
3480.36	1156.3
3484.4	1158
3488.44	1156.3
3492.47	1152.8
3496.5	1157.2
3500.54	1156.4
3504.56	1154.1
3508.59	1153.9
3512.62	1157.9
3516.64	1157.6
3520.66	1154
3524.67	1154.5
3528.69	1153.8
3532.7	1155.1
3536.72	1156.6
3540.72	1156.3
3544.73	1158.3
3548.74	1155.6
3552.74	1156.1
3556.74	1154.6
3560.74	1157.1
3564.73	1156.2
3568.73	1153.9
3572.72	1153.8
3576.71	1156.1
3580.7	1152.7
3584.68	1155.2
3588.66	1156.2
3592.64	1153.3
3596.62	1153.3
3600.6	1155.5
3604.57	1153.6
3608.55	1154.4
3612.52	1157.4
3616.48	1155.1
3620.45	1152.2
3624.41	1156.6
3628.38	1154.3
3632.34	1152.4
3636.29	1152.9
3640.25	1153.6
3644.2	1154.4
3648.15	1155.2
3652.1	1154.5
3656.05	1153.7
3659.99	1156.3
3663.94	1154.9
3667.88	1153.8
3671.81	1152.2
3675.75	1158
3679.68	1152.8
3683.62	1155.8
3687.55	1153.4
3691.47	1153.8
3695.4	1154.2
3699.32	1153.2
3703.24	1149.7
3707.16	1151.6
3711.08	1153.3
3715	1152.6
3718.91	1152.2
3722.82	1151.8
3726.73	1153.7
3730.64	1154.4
3734.54	1152.1
3738.44	1152
3742.34	1154.1
3746.24	1157.9
3750.14	1151.9
3754.03	1150.6
3757.92	1153.5
3761.81	1153.7
3765.7	1152.9
3769.59	1154.4
3773.47	1149.6
3775.41	1150.2