File: espectroscopia_raman/Muestras_12.11.24_tests/Data/Muestra 2_100x_zona1_azul.txt
-174.488	1148.3
-168.221	1147
-161.957	1149.1
-155.697	1149.5
-149.442	1148.1
-143.191	1148
-136.943	1148.3
-130.7	1146.7
-124.461	1147.9
-118.226	1148.2
-111.995	1148.4
-105.768	1146.2
-99.5451	1146.6
-93.3263	1148.9
-87.1116	1147.3
-80.9009	1147.1
-74.6943	1148.5
-68.4917	1146.7
-62.2932	1149.6
-56.0987	1148.2
-49.9082	1147.9
-43.7218	1147.1
-37.5394	1147.3
-31.361	1148.1
-25.1866	1147.7
-19.0163	1148.5
-12.85	1149.9
-6.6877	1148
-0.529406	1156
5.62488	1163
11.7752	1150.5
17.9214	1149.3
24.0637	1149
30.202	1149.9
36.3363	1148
42.4666	1148.5
48.593	1147.7
54.7153	1148.6
60.8337	1146.2
66.9481	1150.9
73.0585	1151.3
79.165	1174.6
85.2675	1306.3
91.366	1369.1
97.4606	1396.4
103.551	1402.6
109.638	1409.7
115.721	1396.3
121.799	1393.6
127.874	1380.2
133.945	1371.1
140.012	1372.9
146.075	1362.1
152.134	1358.2
158.189	1353.5
164.241	1364
170.288	1373
176.332	1364
182.371	1367
188.407	1359.7
194.438	1359.3
200.466	1367.9
206.49	1358.3
212.51	1373.1
218.526	1369.8
224.538	1382.2
230.547	1382.2
236.551	1377.7
242.552	1377.8
248.548	1398.2
254.541	1393.4
260.53	1394.3
266.515	1409.3
272.497	1400.1
278.474	1414.7
284.447	1402
290.417	1418.8
296.383	1432.8
302.345	1454.8
308.303	1437.7
314.257	1432.8
320.208	1397
326.154	1400.6
332.097	1391.3
338.036	1389.3
343.971	1384.9
349.902	1386.8
355.83	1379.8
361.753	1377.9
367.673	1381.3
373.589	1371.1
379.501	1375.1
385.41	1367.8
391.314	1359.7
397.215	1357.8
403.112	1363.9
409.005	1369
414.895	1359.2
420.78	1367.5
426.662	1377.9
432.54	1369.8
438.414	1376
444.285	1362.3
450.152	1351.9
456.015	1341.2
461.874	1355.3
467.729	1343.3
473.581	1346.9
479.429	1350.3
485.273	1379.2
491.113	1388.2
496.95	1423
502.783	1466.4
508.612	1699.4
514.438	3255
520.259	7629.6
526.077	3420.2
531.892	1929.6
537.702	1577.1
543.509	1470.6
549.312	1418.7
555.112	1398
560.907	1361.4
566.699	1372
572.487	1367.7
578.272	1354.5
584.053	1353.1
589.83	1357
595.603	1350.8
601.373	1357.5
607.139	1363.5
612.902	1360.6
618.66	1375
624.415	1368.6
630.167	1366.8
635.914	1361.8
641.658	1368.3
647.399	1360.1
653.135	1369.4
658.869	1366
664.598	1369.7
670.324	1363.4
676.046	1372.6
681.764	1374.5
687.479	1375.2
693.19	1365.2
698.897	1358
704.601	1360.8
710.301	1347.9
715.998	1356.2
721.691	1353.2
727.38	1358
733.066	1357.7
738.748	1360
744.426	1351
750.101	1361
755.772	1365.9
761.44	1364.5
767.104	1358.8
772.764	1364.3
778.421	1365
784.074	1365.5
789.724	1368.9
795.37	1368
801.012	1373.5
806.651	1373.3
812.286	1381.5
817.918	1378.1
823.546	1378.1
829.171	1381.5
834.792	1378.9
840.409	1374.6
846.023	1382.1
851.633	1376.2
857.24	1374.4
862.843	1379
868.443	1385.4
874.039	1384.4
879.631	1390.1
885.22	1387.3
890.806	1390
896.387	1387.2
901.966	1395.3
907.541	1396.2
913.112	1377.5
918.68	1390.4
924.244	1417.5
929.805	1479.4
935.362	1538
940.915	1584.6
946.466	1592.7
952.012	1588.7
957.555	1605.5
963.095	1606.9
968.631	1603.4
974.164	1612.4
979.693	1604.1
985.219	1577
990.741	1529.2
996.259	1476.2
1001.77	1467.5
1007.29	1436.8
1012.79	1431.1
1018.3	1425.5
1023.8	1420.5
1029.3	1409.2
1034.79	1409.3
1040.28	1402
1045.77	1403
1051.26	1398.7
1056.74	1398.9
1062.21	1396.6
1067.69	1408.4
1073.16	1403.8
1078.62	1412.9
1084.09	1410.9
1089.55	1413.1
1095	1416.2
1100.46	1416
1105.91	1395.9
1111.35	1417.7
1116.79	1416.6
1122.23	1418.4
1127.67	1427.1
1133.1	1418.3
1138.53	1433.1
1143.96	1424.2
1149.38	1432.7
1154.8	1431.1
1160.21	1429.2
1165.62	1434.8
1171.03	1436.9
1176.44	1439.8
1181.84	1447
1187.24	1447.5
1192.63	1448.2
1198.03	1453.3
1203.41	1458.6
1208.8	1460.2
1214.18	1456.3
1219.56	1464.7
1224.93	1475.8
1230.3	1477.1
1235.67	1477.4
1241.04	1490.8
1246.4	1489.3
1251.76	1493.7
1257.11	1482.6
1262.46	1501.7
1267.81	1512.8
1273.15	1502.8
1278.5	1513
1283.83	1517.2
1289.17	1520.6
1294.5	1531
1299.83	1535.6
1305.15	1545.8
1310.47	1554.1
1315.79	1553.4
1321.11	1582.8
1326.42	1592.6
1331.73	1627.4
1337.03	1645.2
1342.33	1662.5
1347.63	1648.2
1352.92	1630.1
1358.22	1615
1363.5	1592.4
1368.79	1586.6
1374.07	1566.7
1379.35	1566.5
1384.62	1569.4
1389.9	1546.5
1395.16	1565.3
1400.43	1536.7
1405.69	1552.9
1410.95	1542.1
1416.21	1544.7
1421.46	1538.5
1426.71	1533.6
1431.95	1554.2
1437.19	1547.7
1442.43	1556
1447.67	1537.6
1452.9	1542.4
1458.13	1542.1
1463.36	1548
1468.58	1537.7
1473.8	1559
1479.02	1543.2
1484.23	1545.7
1489.44	1556.6
1494.65	1562.6
1499.85	1566.4
1505.05	1558
1510.25	1563.9
1515.44	1578.9
1520.63	1590.8
1525.82	1586
1531	1613.2
1536.18	1636.8
1541.36	1674.1
1546.54	1710.9
1551.71	1759.7
1556.87	1875
1562.04	2033.9
1567.2	2258.5
1572.36	2431.9
1577.52	2440.3
1582.67	2258.9
1587.82	2071
1592.96	1902.5
1598.11	1798.2
1603.24	1717.2
1608.38	1693.8
1613.51	1649.4
1618.64	1633.2
1623.77	1580
1628.89	1557.6
1634.01	1524.3
1639.13	1513.2
1644.25	1501.9
1649.36	1503.6
1654.47	1499.5
1659.57	1467.7
1664.67	1478.3
1669.77	1460.7
1674.87	1456.5
1679.96	1457.4
1685.05	1448.9
1690.13	1453.3
1695.22	1434.8
1700.3	1439
1705.37	1437.7
1710.45	1440.1
1715.52	1432.5
1720.58	1438.8
1725.65	1441.8
1730.71	1439.5
1735.77	1434.7
1740.82	1422.3
1745.87	1434.6
1750.92	1437.8
1755.97	1420.9
1761.01	1433.9
1766.05	1428.5
1771.09	1423.9
1776.12	1423.6
1781.15	1417
1786.18	1436.1
1791.2	1424.4
1796.22	1434.1
1801.24	1427.5
1806.25	1435.5
1811.26	1416.8
1816.27	1431.1
1821.28	1416.6
1826.28	1422.6
1831.28	1425
1836.28	1426.7
1841.27	1425.5
1846.26	1424.1
1851.25	1434
1856.23	1418.6
1861.21	1427
1866.19	1430.2
1871.17	1429.5
1876.14	1421.1
1881.11	1435.2
1886.07	1424.7
1891.04	1430
1896	1424.6
1900.95	1431.8
1905.91	1429.5
1910.86	1429.5
1915.81	1427.3
1920.75	1431
1925.69	1420.4
1930.63	1427.6
1935.57	1426.9
1940.5	1413.5
1945.43	1424.2
1950.36	1413.8
1955.28	1424.7
1960.2	1412.3
1965.12	1415.7
1970.04	1420.3
1974.95	1414.6
1979.86	1421.8
1984.76	1430
1989.67	1424.5
1994.57	1431
1999.47	1426.1
2004.36	1424.9
2009.25	1423.4
2014.14	1427.9
2019.02	1429.1
2023.91	1422.9
2028.79	1424.4
2033.66	1423.2
2038.54	1409
2043.41	1424.3
2048.27	1424.1
2053.14	1417.5
2058	1416.5
2062.86	1418.2
2067.72	1429.5
2072.57	1422.2
2077.42	1420.3
2082.27	1416
2087.11	1419.8
2091.95	1422.8
2096.79	1430.3
2101.63	1416.5
2106.46	1414.9
2111.29	1427.2
2116.11	1415.5
2120.94	1420.8
2125.76	1424.6
2130.58	1417.8
2135.39	1411.6
2140.21	1421.9
2145.01	1409.8
2149.82	1403.9
2154.62	1424.1
2159.43	1420.7
2164.22	1422.7
2169.02	1413
2173.81	1418.1
2178.6	1417.9
2183.39	1424.3
2188.17	1416.9
2192.95	1427.1
2197.73	1426
2202.5	1420.1
2207.28	1419.5
2212.04	1418
2216.81	1418.9
2221.57	1421.1
2226.33	1415.7
2231.09	1414.7
2235.85	1412.9
2240.6	1412.1
2245.35	1409.4
2250.1	1421.7
2254.84	1420.3
2259.58	1409.1
2264.32	1405.1
2269.05	1406.9
2273.79	1412.4
2278.52	1423
2283.24	1422.5
2287.97	1420.3
2292.69	1411.7
2297.4	1412.2
2302.12	1425.8
2306.83	1416.4
2311.54	1416.8
2316.25	1429.2
2320.95	1408.3
2325.66	1408
2330.35	1414.7
2335.05	1421.3
2339.74	1420.6
2344.43	1415.8
2349.12	1417.1
2353.81	1432.4
2358.49	1424
2363.17	1413.8
2367.84	1415.6
2372.52	1414.9
2377.19	1421.8
2381.86	1415.9
2386.52	1412.2
2391.18	1427.8
2395.84	1423
2400.5	1419.8
2405.15	1434.9
2409.81	1427.3
2414.45	1435.1
2419.1	1430.4
2423.74	1438.2
2428.38	1444.5
2433.02	1445.5
2437.66	1436.1
2442.29	1457.6
2446.92	1439
2451.55	1458
2456.17	1447.6
2460.79	1441.9
2465.41	1435.9
2470.03	1438.5
2474.64	1437.3
2479.25	1431
2483.86	1430.3
2488.46	1421.2
2493.07	1428.5
2497.67	1431.4
2502.26	1430.2
2506.86	1418.1
2511.45	1415.5
2516.04	1427.4
2520.62	1428.6
2525.21	1428.1
2529.79	1430
2534.37	1431.9
2538.94	1425.3
2543.51	1429.6
2548.08	1423.7
2552.65	1416.5
2557.22	1427.3
2561.78	1426.4
2566.34	1424.2
2570.89	1423
2575.45	1428.8
2580	1436.2
2584.55	1450.7
2589.1	1436.3
2593.64	1439.3
2598.18	1448.5
2602.72	1461.4
2607.25	1456.9
2611.79	1459.5
2616.32	1475.3
2620.84	1485.9
2625.37	1504.7
2629.89	1523
2634.41	1554
2638.93	1578.8
2643.44	1613.5
2647.95	1644.3
2652.46	1711.5
2656.97	1757.1
2661.47	1827.9
2665.97	1913.1
2670.47	1951.7
2674.97	1988.3
2679.46	1984.4
2683.95	1986.8
2688.44	1952.6
2692.93	1909.8
2697.41	1844.2
2701.89	1782.9
2706.37	1716
2710.84	1663.2
2715.32	1624.4
2719.79	1567.5
2724.25	1541.3
2728.72	1497.4
2733.18	1489.6
2737.64	1478.6
2742.1	1460.7
2746.55	1452.2
2751	1439.9
2755.45	1429.3
2759.9	1433.1
2764.34	1415.8
2768.79	1427.9
2773.22	1412
2777.66	1412.4
2782.1	1416.1
2786.53	1409.2
2790.96	1400.5
2795.38	1409.4
2799.81	1391.3
2804.23	1388.2
2808.65	1384.8
2813.06	1394
2817.48	1394
2821.89	1394.5
2826.3	1377.6
2830.7	1395.3
2835.1	1376.1
2839.51	1389.7
2843.9	1380.3
2848.3	1385
2852.69	1367.2
2857.08	1381
2861.47	1370.7
2865.86	1373.3
2870.24	1382.3
2874.62	1367.8
2879	1382.7
2883.38	1380.4
2887.75	1379.3
2892.12	1376.1
2896.49	1370.5
2900.85	1378.6
2905.22	1356.9
2909.58	1369.7
2913.94	1365.5
2918.29	1364.7
2922.65	1369
2927	1364
2931.35	1358.4
2935.69	1361.1
2940.03	1364.1
2944.38	1359.9
2948.71	1357.1
2953.05	1352.1
2957.38	1364.6
2961.71	1345.8
2966.04	1348
2970.37	1356.5
2974.69	1339.6
2979.01	1350.1
2983.33	1357.4
2987.65	1353.5
2991.96	1342.1
2996.27	1343.7
3000.58	1338.3
3004.89	1341.7
3009.19	1344.4
3013.5	1330.6
3017.79	1330.7
3022.09	1338.5
3026.39	1335.9
3030.68	1331.3
3034.97	1332.5
3039.25	1322.9
3043.54	1323.6
3047.82	1320.6
3052.1	1322.9
3056.38	1332.1
3060.65	1326.7
3064.93	1321.5
3069.2	1326.8
3073.46	1324.3
3077.73	1321.6
3081.99	1323.8
3086.25	1315.5
3090.51	1319.9
3094.77	1322
3099.02	1319.9
3103.27	1317.5
3107.52	1312.2
3111.77	1308.9
3116.01	1315.3
3120.25	1313.1
3124.49	1309.2
3128.73	1307.8
3132.96	1303.4
3137.19	1311.6
3141.42	1311.8
3145.65	1304.4
3149.87	1303.9
3154.1	1313.9
3158.32	1306.8
3162.53	1313.1
3166.75	1300.6
3170.96	1302.2
3175.17	1303.8
3179.38	1301.5
3183.59	1302.4
3187.79	1302.5
3191.99	1306.8
3196.19	1304.3
3200.39	1298.8
3204.58	1299.8
3208.77	1306
3212.96	1310
3217.15	1308.8
3221.33	1312.1
3225.52	1317.6
3229.7	1305.3
3233.87	1312.1
3238.05	1304.3
3242.22	1309.7
3246.39	1294.6
3250.56	1297.4
3254.73	1301.6
3258.89	1285.6
3263.05	1294.8
3267.21	1286.9
3271.37	1287.8
3275.52	1282.1
3279.68	1274.2
3283.83	1278
3287.97	1278.8
3292.12	1277
3296.26	1279.5
3300.4	1277.5
3304.54	1277.2
3308.68	1280.1
3312.81	1274.9
3316.94	1275.2
3321.07	1273.9
3325.2	1279.5
3329.33	1275.5
3333.45	1273.8
3337.57	1270.9
3341.69	1265.2
3345.8	1277.9
3349.92	1260.7
3354.03	1263.3
3358.14	1263
3362.24	1270.2
3366.35	1263.7
3370.45	1265.5
3374.55	1264
3378.65	1262.8
3382.74	1269.6
3386.83	1261
3390.93	1260.7
3395.01	1265.8
3399.1	1259.8
3403.18	1261.5
3407.27	1249.7
3411.35	1251.5
3415.42	1250.7
3419.5	1254.8
3423.57	1259
3427.64	1256
3431.71	1251.5
3435.78	1254.3
3439.84	1246.4
3443.9	1247
3447.96	1244
3452.02	1241.3
3456.07	1250.9
3460.13	1244
3464.18	1247.4
3468.23	1246.1
3472.27	1243.7
3476.32	1242.3
3480.36	1246.2
3484.4	1243.7
3488.44	1236.9
3492.47	1243
3496.5	1237.1
3500.54	1239.6
3504.56	1234.9
3508.59	1235.1
3512.62	1237.8
3516.64	1236.7
3520.66	1232.7
3524.67	1232.7
3528.69	1236.4
3532.7	1233.6
3536.72	1235.3
3540.72	1237.6
3544.73	1235.7
3548.74	1234.7
3552.74	1228.3
3556.74	1233.8
3560.74	1224.2
3564.73	1230.8
3568.73	1225.4
3572.72	1230.9
3576.71	1227.5
3580.7	1225.9
3584.68	1226.2
3588.66	1229.8
3592.64	1224.3
3596.62	1228.1
3600.6	1219.8
3604.57	1221.4
3608.55	1223.4
3612.52	1221.8
3616.48	1220.4
3620.45	1222
3624.41	1214.7
3628.38	1218.9
3632.34	1217.1
3636.29	1217
3640.25	1214.2
3644.2	1216.7
3648.15	1222.1
3652.1	1216.9
3656.05	1221.7
3659.99	1215.9
3663.94	1212.4
3667.88	1209.9
3671.81	1212.6
3675.75	1212.5
3679.68	1210
3683.62	1216.5
3687.55	1212.7
3691.47	1210.2
3695.4	1208.9
3699.32	1207.1
3703.24	1208.7
3707.16	1202.2
3711.08	1205
3715	1206.4
3718.91	1204.4
3722.82	1210.5
3726.73	1201.4
3730.64	1208.6
3734.54	1206.1
3738.44	1199.6
3742.34	1205.9
3746.24	1202.9
3750.14	1203.1
3754.03	1201.4
3757.92	1201.5
3761.81	1199.6
3765.7	1196.6
3769.59	1200.8
3773.47	1197.5
3775.41	1202.8