File: espectroscopia_raman/Muestras_12.11.24_tests/Data/Muestra 2_100x_zona1_cian.txt
-174.488	1145.9
-168.221	1147
-161.957	1148.7
-155.697	1148.7
-149.442	1147.6
-143.191	1149
-136.943	1149.3
-130.7	1147
-124.461	1147.3
-118.226	1148.2
-111.995	1147.3
-105.768	1149.2
-99.5451	1147.9
-93.3263	1149.3
-87.1116	1148.4
-80.9009	1150.6
-74.6943	1150.9
-68.4917	1148
-62.2932	1148.1
-56.0987	1148
-49.9082	1147.8
-43.7218	1145.3
-37.5394	1147.1
-31.361	1147.9
-25.1866	1149.6
-19.0163	1147.7
-12.85	1146.5
-6.6877	1149.7
-0.529406	1150.4
5.62488	1153.2
11.7752	1146.4
17.9214	1148.1
24.0637	1148.8
30.202	1147
36.3363	1147.7
42.4666	1149.3
48.593	1146
54.7153	1149.5
60.8337	1148.6
66.9481	1148.9
73.0585	1151.2
79.165	1178.1
85.2675	1301.2
91.366	1380.7
97.4606	1396.9
103.551	1382.6
109.638	1383.8
115.721	1379.5
121.799	1378.3
127.874	1369.8
133.945	1349.7
140.012	1347.9
146.075	1337.5
152.134	1341
158.189	1339.8
164.241	1326.3
170.288	1342.4
176.332	1338.8
182.371	1337.9
188.407	1332.8
194.438	1330.1
200.466	1315.8
206.49	1320.9
212.51	1324.8
218.526	1336.7
224.538	1349.4
230.547	1354.5
236.551	1357.2
242.552	1365.7
248.548	1371.9
254.541	1378.7
260.53	1389.4
266.515	1392.1
272.497	1395
278.474	1393.6
284.447	1396.5
290.417	1404.9
296.383	1437.9
302.345	1455.9
308.303	1428.9
314.257	1415.7
320.208	1400.5
326.154	1382.6
332.097	1373.3
338.036	1361.5
343.971	1364.6
349.902	1351.9
355.83	1355
361.753	1350
367.673	1352.4
373.589	1347.8
379.501	1342.4
385.41	1329.6
391.314	1324.1
397.215	1335.2
403.112	1330.4
409.005	1329.3
414.895	1327.9
420.78	1337.4
426.662	1342.2
432.54	1344.1
438.414	1328.2
444.285	1320.2
450.152	1311.8
456.015	1298.3
461.874	1292.3
467.729	1296.2
473.581	1306.2
479.429	1310.4
485.273	1326.5
491.113	1343.5
496.95	1382
502.783	1473
508.612	1805.2
514.438	4177.5
520.259	10487.9
526.077	4318.8
531.892	2148.5
537.702	1637.5
543.509	1485.8
549.312	1393.1
555.112	1354.1
560.907	1339.8
566.699	1320
572.487	1306.1
578.272	1296.5
584.053	1295.2
589.83	1282.2
595.603	1293.5
601.373	1293.8
607.139	1299.1
612.902	1311.4
618.66	1316.7
624.415	1309.2
630.167	1307.2
635.914	1300
641.658	1305.1
647.399	1302.2
653.135	1302.5
658.869	1305.5
664.598	1305.6
670.324	1308.6
676.046	1302.4
681.764	1306.9
687.479	1285.4
693.19	1283.7
698.897	1268.5
704.601	1277.3
710.301	1280.1
715.998	1269.7
721.691	1268.7
727.38	1276
733.066	1273.7
738.748	1272.5
744.426	1270.6
750.101	1270.4
755.772	1277.6
761.44	1273.5
767.104	1281.9
772.764	1276.1
778.421	1283.8
784.074	1280.5
789.724	1285.3
795.37	1287.7
801.012	1297.5
806.651	1294.7
812.286	1291.7
817.918	1299.4
823.546	1300.3
829.171	1299
834.792	1293.1
840.409	1288.1
846.023	1292.7
851.633	1294.2
857.24	1295.8
862.843	1289
868.443	1293.1
874.039	1296.3
879.631	1304.3
885.22	1298.3
890.806	1301.8
896.387	1305.1
901.966	1299.8
907.541	1296.5
913.112	1307.7
918.68	1318.5
924.244	1344.1
929.805	1411.7
935.362	1509.4
940.915	1595.3
946.466	1606.7
952.012	1604.8
957.555	1603
963.095	1626
968.631	1626.5
974.164	1636.4
979.693	1623.3
985.219	1594.2
990.741	1495.7
996.259	1424.9
1001.77	1394
1007.29	1367.6
1012.79	1353.8
1018.3	1342.8
1023.8	1320.8
1029.3	1317.9
1034.79	1304.7
1040.28	1298.4
1045.77	1289.1
1051.26	1286.5
1056.74	1287.3
1062.21	1288.8
1067.69	1296.7
1073.16	1299.5
1078.62	1287.7
1084.09	1307.2
1089.55	1293
1095	1299.8
1100.46	1304.8
1105.91	1306.5
1111.35	1310.2
1116.79	1306.5
1122.23	1298.5
1127.67	1314.6
1133.1	1313.2
1138.53	1329.8
1143.96	1317.9
1149.38	1330.4
1154.8	1318.3
1160.21	1332.4
1165.62	1329.8
1171.03	1333.7
1176.44	1339.3
1181.84	1340.3
1187.24	1348.2
1192.63	1344.9
1198.03	1357.4
1203.41	1359.9
1208.8	1360.5
1214.18	1380.7
1219.56	1372.1
1224.93	1382.5
1230.3	1389.4
1235.67	1407.1
1241.04	1403.6
1246.4	1412.6
1251.76	1424.4
1257.11	1416.7
1262.46	1446
1267.81	1450.2
1273.15	1464.8
1278.5	1463.2
1283.83	1479.7
1289.17	1497.9
1294.5	1508.6
1299.83	1520.8
1305.15	1536.6
1310.47	1557.9
1315.79	1580
1321.11	1599.5
1326.42	1614.2
1331.73	1639.1
1337.03	1656.3
1342.33	1686.5
1347.63	1659.4
1352.92	1644.9
1358.22	1631.2
1363.5	1595.7
1368.79	1595.8
1374.07	1580.1
1379.35	1562
1384.62	1533.9
1389.9	1518.2
1395.16	1521.3
1400.43	1514
1405.69	1491.8
1410.95	1487.8
1416.21	1473.7
1421.46	1477.3
1426.71	1469.8
1431.95	1460.1
1437.19	1465.2
1442.43	1461
1447.67	1445
1452.9	1455.6
1458.13	1454
1463.36	1444.7
1468.58	1455.1
1473.8	1444.5
1479.02	1451.9
1484.23	1449.9
1489.44	1452.7
1494.65	1461.1
1499.85	1450.9
1505.05	1471.5
1510.25	1467.9
1515.44	1452.1
1520.63	1467.4
1525.82	1474.6
1531	1484.8
1536.18	1513.5
1541.36	1526.1
1546.54	1542.1
1551.71	1571.2
1556.87	1620.7
1562.04	1676.4
1567.2	1775.3
1572.36	1901.5
1577.52	2035.9
1582.67	2095.5
1587.82	2018.8
1592.96	1903.2
1598.11	1785.9
1603.24	1728.3
1608.38	1669.5
1613.51	1636.1
1618.64	1592.1
1623.77	1550.9
1628.89	1509.1
1634.01	1468.3
1639.13	1423.6
1644.25	1391.9
1649.36	1370.8
1654.47	1364.2
1659.57	1341.9
1664.67	1325.3
1669.77	1328.4
1674.87	1307.4
1679.96	1298
1685.05	1291.3
1690.13	1292.9
1695.22	1287.2
1700.3	1279.1
1705.37	1271.4
1710.45	1276.3
1715.52	1273.6
1720.58	1275.2
1725.65	1275.9
1730.71	1275.7
1735.77	1265.9
1740.82	1263.4
1745.87	1265.3
1750.92	1266.9
1755.97	1268.8
1761.01	1268.2
1766.05	1261.7
1771.09	1261.4
1776.12	1259.2
1781.15	1259.5
1786.18	1261.3
1791.2	1250.1
1796.22	1257.1
1801.24	1260.5
1806.25	1257.4
1811.26	1254.8
1816.27	1249.6
1821.28	1253.7
1826.28	1252.3
1831.28	1254.7
1836.28	1259.9
1841.27	1260.1
1846.26	1256.4
1851.25	1251.5
1856.23	1253.2
1861.21	1255.8
1866.19	1247.9
1871.17	1254.5
1876.14	1250.3
1881.11	1258.2
1886.07	1253.8
1891.04	1250.6
1896	1248.1
1900.95	1256.7
1905.91	1247.4
1910.86	1245.4
1915.81	1248.3
1920.75	1250.8
1925.69	1244.2
1930.63	1244.6
1935.57	1251.3
1940.5	1249.2
1945.43	1246.7
1950.36	1253.8
1955.28	1249.4
1960.2	1247.6
1965.12	1243.9
1970.04	1251.2
1974.95	1247
1979.86	1254.9
1984.76	1248.2
1989.67	1251.5
1994.57	1254.9
1999.47	1245.6
2004.36	1252.4
2009.25	1249.1
2014.14	1248.5
2019.02	1242.1
2023.91	1247.7
2028.79	1246.3
2033.66	1249.7
2038.54	1243.7
2043.41	1241.7
2048.27	1249.7
2053.14	1240.5
2058	1248.2
2062.86	1243.7
2067.72	1251
2072.57	1242.5
2077.42	1247.3
2082.27	1244.3
2087.11	1243
2091.95	1243.5
2096.79	1250.3
2101.63	1241.2
2106.46	1245.6
2111.29	1246.1
2116.11	1239.9
2120.94	1246.6
2125.76	1241.9
2130.58	1244.4
2135.39	1245.1
2140.21	1247.2
2145.01	1244.5
2149.82	1249.9
2154.62	1244.2
2159.43	1239.3
2164.22	1244
2169.02	1241.5
2173.81	1253
2178.6	1247.2
2183.39	1240.1
2188.17	1241.3
2192.95	1245.2
2197.73	1243.2
2202.5	1246.8
2207.28	1240.1
2212.04	1246.8
2216.81	1246
2221.57	1238.8
2226.33	1244.9
2231.09	1238.4
2235.85	1244.7
2240.6	1243.2
2245.35	1237.6
2250.1	1237.6
2254.84	1244.6
2259.58	1238.5
2264.32	1240.4
2269.05	1244.1
2273.79	1245.6
2278.52	1245.2
2283.24	1238.5
2287.97	1246.7
2292.69	1244.6
2297.4	1242.1
2302.12	1247.2
2306.83	1237.1
2311.54	1238
2316.25	1237.3
2320.95	1239.1
2325.66	1240.4
2330.35	1239.1
2335.05	1238.4
2339.74	1237.4
2344.43	1240.3
2349.12	1237.8
2353.81	1244.4
2358.49	1237.3
2363.17	1236.6
2367.84	1244.8
2372.52	1242.6
2377.19	1242.3
2381.86	1239.5
2386.52	1242.3
2391.18	1240.1
2395.84	1245
2400.5	1242.8
2405.15	1238.8
2409.81	1242.8
2414.45	1243.5
2419.1	1245.5
2423.74	1243.7
2428.38	1249.2
2433.02	1246.1
2437.66	1246.5
2442.29	1250
2446.92	1251
2451.55	1256.5
2456.17	1256.1
2460.79	1255.2
2465.41	1261.8
2470.03	1242.4
2474.64	1251.9
2479.25	1256.3
2483.86	1257.9
2488.46	1247.7
2493.07	1250.5
2497.67	1250.5
2502.26	1247
2506.86	1252.3
2511.45	1249.3
2516.04	1251.4
2520.62	1251
2525.21	1250.2
2529.79	1251.5
2534.37	1251
2538.94	1240.2
2543.51	1256.7
2548.08	1247.8
2552.65	1252.2
2557.22	1254
2561.78	1250.6
2566.34	1258
2570.89	1263.2
2575.45	1244.9
2580	1247.2
2584.55	1254.8
2589.1	1257.4
2593.64	1257.7
2598.18	1254.8
2602.72	1246.6
2607.25	1256.5
2611.79	1260.9
2616.32	1259.5
2620.84	1263.2
2625.37	1269.8
2629.89	1266.3
2634.41	1285.6
2638.93	1280.5
2643.44	1289.7
2647.95	1297
2652.46	1314.3
2656.97	1335.1
2661.47	1350.7
2665.97	1369.2
2670.47	1404.6
2674.97	1405.1
2679.46	1413.4
2683.95	1435.8
2688.44	1417.6
2692.93	1414.5
2697.41	1386.2
2701.89	1371.7
2706.37	1347.2
2710.84	1338
2715.32	1309.3
2719.79	1292.9
2724.25	1292.1
2728.72	1282.2
2733.18	1278.3
2737.64	1267.6
2742.1	1258.7
2746.55	1260.9
2751	1255.9
2755.45	1256.1
2759.9	1252
2764.34	1247.6
2768.79	1253
2773.22	1251.2
2777.66	1243.6
2782.1	1239.8
2786.53	1248.9
2790.96	1241
2795.38	1244.7
2799.81	1247.1
2804.23	1244.1
2808.65	1235.9
2813.06	1237.6
2817.48	1241.8
2821.89	1237.6
2826.3	1245.3
2830.7	1238.5
2835.1	1242
2839.51	1242.9
2843.9	1242.8
2848.3	1233.6
2852.69	1242.6
2857.08	1236.9
2861.47	1244.5
2865.86	1243
2870.24	1236.5
2874.62	1236.6
2879	1241.6
2883.38	1238.4
2887.75	1236.7
2892.12	1238.4
2896.49	1239.8
2900.85	1242.1
2905.22	1240.9
2909.58	1235.5
2913.94	1234.4
2918.29	1244.3
2922.65	1242.6
2927	1235.7
2931.35	1235
2935.69	1235.3
2940.03	1236.3
2944.38	1235.4
2948.71	1236.5
2953.05	1236.3
2957.38	1239.5
2961.71	1229.5
2966.04	1229.8
2970.37	1224.5
2974.69	1225.7
2979.01	1227.1
2983.33	1228.8
2987.65	1218.7
2991.96	1222
2996.27	1222.8
3000.58	1218.2
3004.89	1217.6
3009.19	1216.7
3013.5	1217.1
3017.79	1215.8
3022.09	1212.7
3026.39	1217.3
3030.68	1216.8
3034.97	1218.2
3039.25	1217.5
3043.54	1213.2
3047.82	1210.4
3052.1	1209.8
3056.38	1211.1
3060.65	1210.5
3064.93	1210.2
3069.2	1211
3073.46	1209.3
3077.73	1205.5
3081.99	1203.6
3086.25	1205.7
3090.51	1208
3094.77	1209.4
3099.02	1208.7
3103.27	1201.8
3107.52	1204.8
3111.77	1203.9
3116.01	1207.1
3120.25	1203.4
3124.49	1206
3128.73	1199.5
3132.96	1194.3
3137.19	1203.3
3141.42	1203.7
3145.65	1205.7
3149.87	1202.9
3154.1	1198.4
3158.32	1196.4
3162.53	1201.3
3166.75	1202.6
3170.96	1201
3175.17	1198.5
3179.38	1203.6
3183.59	1202.8
3187.79	1196.3
3191.99	1196.5
3196.19	1200.4
3200.39	1194.4
3204.58	1199.3
3208.77	1194.8
3212.96	1193.4
3217.15	1196.4
3221.33	1197.8
3225.52	1196.8
3229.7	1198.2
3233.87	1198.2
3238.05	1199
3242.22	1202.9
3246.39	1193.8
3250.56	1195.9
3254.73	1191.2
3258.89	1192.8
3263.05	1188.5
3267.21	1186.1
3271.37	1189.1
3275.52	1187.9
3279.68	1186.4
3283.83	1182.4
3287.97	1191.1
3292.12	1185.1
3296.26	1186.3
3300.4	1184.6
3304.54	1185.6
3308.68	1190.1
3312.81	1183.9
3316.94	1184.6
3321.07	1181.4
3325.2	1178.5
3329.33	1183.1
3333.45	1181.8
3337.57	1182.1
3341.69	1185.2
3345.8	1186.7
3349.92	1179.4
3354.03	1180.5
3358.14	1178.9
3362.24	1183.5
3366.35	1185.2
3370.45	1181.7
3374.55	1176.6
3378.65	1176.6
3382.74	1181.9
3386.83	1172.3
3390.93	1180.1
3395.01	1175.3
3399.1	1179.9
3403.18	1180.9
3407.27	1176.8
3411.35	1177.1
3415.42	1182.6
3419.5	1175.8
3423.57	1181.1
3427.64	1178
3431.71	1177.7
3435.78	1180
3439.84	1177.4
3443.9	1176.3
3447.96	1177
3452.02	1179.9
3456.07	1178.4
3460.13	1175.9
3464.18	1177.3
3468.23	1169.7
3472.27	1173.5
3476.32	1170.1
3480.36	1173
3484.4	1174.3
3488.44	1173.1
3492.47	1174.6
3496.5	1174.6
3500.54	1172.5
3504.56	1173.6
3508.59	1174.6
3512.62	1171
3516.64	1172.3
3520.66	1172.5
3524.67	1168.8
3528.69	1172
3532.7	1170.2
3536.72	1174.8
3540.72	1166.6
3544.73	1168.3
3548.74	1172.3
3552.74	1167.7
3556.74	1170.3
3560.74	1169.2
3564.73	1167.7
3568.73	1170.3
3572.72	1168.1
3576.71	1171.4
3580.7	1169.7
3584.68	1170.7
3588.66	1168
3592.64	1165.5
3596.62	1166.7
3600.6	1169.2
3604.57	1164.6
3608.55	1167.1
3612.52	1165.9
3616.48	1166.9
3620.45	1167.5
3624.41	1167.5
3628.38	1166.8
3632.34	1165.5
3636.29	1164.1
3640.25	1162.5
3644.2	1165.9
3648.15	1165.7
3652.1	1166.8
3656.05	1163.2
3659.99	1166.4
3663.94	1163.9
3667.88	1168.6
3671.81	1164.5
3675.75	1164.3
3679.68	1161
3683.62	1166.8
3687.55	1165.7
3691.47	1163.9
3695.4	1166.1
3699.32	1163.7
3703.24	1164.1
3707.16	1163.3
3711.08	1161.6
3715	1166.9
3718.91	1165.8
3722.82	1165.8
3726.73	1165.1
3730.64	1164
3734.54	1160.8
3738.44	1164
3742.34	1161.5
3746.24	1162.2
3750.14	1159.1
3754.03	1160.6
3757.92	1160.1
3761.81	1160.9
3765.7	1162.9
3769.59	1161.7
3773.47	1162.1
3775.41	1160.8